width,height,webaudio,browser,browser_version,mobile,os,fullscreen,vsync_rate,webcam,microphone,trial_type,trial_index,time_elapsed,internal_node_id,run_id,condition,recorded_at,source_code_version,ip,user_agent,device,platform,platform_version,referer,accept_language,success,rt,value,timeout,failed_images,failed_audio,failed_video,view_history,stimulus,response,task,imgs
797,831,TRUE,Edge,120.0.0.0,FALSE,Windows 10,TRUE,58.56,TRUE,TRUE,fullscreen,0,31449,0.0-0.0,135,1,2023/12/21 8:34,88e23e57077159ed4f24370af8da4c16,223.104.160.72,"Mozilla/5.0 (Windows NT 10.0; Win64; x64) AppleWebKit/537.36 (KHTML, like Gecko) Chrome/120.0.0.0 Safari/537.36 Edg/120.0.0.0",WebKit,Windows,10,null,"zh-CN,zh;q=0.9,en;q=0.8,en-GB;q=0.7,en-US;q=0.6",TRUE,31338,"""","""","""","""","""","""","""","""","""",""""
"""","""","""",Edge,120.0.0.0,"""","""","""","""","""","""",call-function,1,31450,0.0-1.0,135,1,2023/12/21 8:34,88e23e57077159ed4f24370af8da4c16,223.104.160.72,"Mozilla/5.0 (Windows NT 10.0; Win64; x64) AppleWebKit/537.36 (KHTML, like Gecko) Chrome/120.0.0.0 Safari/537.36 Edg/120.0.0.0",WebKit,Windows,10,null,"zh-CN,zh;q=0.9,en;q=0.8,en-GB;q=0.7,en-US;q=0.6","""","""","""","""","""","""","""","""","""","""","""",""""
"""","""","""",Edge,120.0.0.0,"""","""","""","""","""","""",preload,2,34115,0.0-2.0,135,1,2023/12/21 8:34,88e23e57077159ed4f24370af8da4c16,223.104.160.72,"Mozilla/5.0 (Windows NT 10.0; Win64; x64) AppleWebKit/537.36 (KHTML, like Gecko) Chrome/120.0.0.0 Safari/537.36 Edg/120.0.0.0",WebKit,Windows,10,null,"zh-CN,zh;q=0.9,en;q=0.8,en-GB;q=0.7,en-US;q=0.6",TRUE,"""","""",FALSE,[],[],[],"""","""","""","""",""""
"""","""","""",Edge,120.0.0.0,"""","""","""","""","""","""",instructions,3,40365,0.0-3.0,135,1,2023/12/21 8:34,88e23e57077159ed4f24370af8da4c16,223.104.160.72,"Mozilla/5.0 (Windows NT 10.0; Win64; x64) AppleWebKit/537.36 (KHTML, like Gecko) Chrome/120.0.0.0 Safari/537.36 Edg/120.0.0.0",WebKit,Windows,10,null,"zh-CN,zh;q=0.9,en;q=0.8,en-GB;q=0.7,en-US;q=0.6","""",6249,"""","""","""","""","""","[{""page_index"":0,""viewing_time"":6249}]","""","""","""",""""
"""","""","""",Edge,120.0.0.0,"""","""","""","""","""","""",instructions,4,102285,0.0-4.0,135,1,2023/12/21 8:34,88e23e57077159ed4f24370af8da4c16,223.104.160.72,"Mozilla/5.0 (Windows NT 10.0; Win64; x64) AppleWebKit/537.36 (KHTML, like Gecko) Chrome/120.0.0.0 Safari/537.36 Edg/120.0.0.0",WebKit,Windows,10,null,"zh-CN,zh;q=0.9,en;q=0.8,en-GB;q=0.7,en-US;q=0.6","""",61920,"""","""","""","""","""","[{""page_index"":0,""viewing_time"":61920}]","""","""","""",""""
"""","""","""",Edge,120.0.0.0,"""","""","""","""","""","""",html-keyboard-response,5,102788,0.0-5.0-0.0-0.0,135,1,2023/12/21 8:34,88e23e57077159ed4f24370af8da4c16,223.104.160.72,"Mozilla/5.0 (Windows NT 10.0; Win64; x64) AppleWebKit/537.36 (KHTML, like Gecko) Chrome/120.0.0.0 Safari/537.36 Edg/120.0.0.0",WebKit,Windows,10,null,"zh-CN,zh;q=0.9,en;q=0.8,en-GB;q=0.7,en-US;q=0.6","""",null,"""","""","""","""","""","""",+,null,"""",""""
"""","""","""",Edge,120.0.0.0,"""","""","""","""","""","""",html-button-response,6,109189,0.0-5.0-0.0-1.0,135,1,2023/12/21 8:34,88e23e57077159ed4f24370af8da4c16,223.104.160.72,"Mozilla/5.0 (Windows NT 10.0; Win64; x64) AppleWebKit/537.36 (KHTML, like Gecko) Chrome/120.0.0.0 Safari/537.36 Edg/120.0.0.0",WebKit,Windows,10,null,"zh-CN,zh;q=0.9,en;q=0.8,en-GB;q=0.7,en-US;q=0.6","""",6399,"""","""","""","""","""","""",<img src='practise.png'>\n                              <p class='attract'>该异性对您来说吸引力评分是</p>\n                              <p class='tips'>(1代表吸引力非常小，9代表吸引力非常大)</p>,0,pre_test,practise.png
"""","""","""",Edge,120.0.0.0,"""","""","""","""","""","""",instructions,7,130222,0.0-5.0-0.0-2.0,135,1,2023/12/21 8:34,88e23e57077159ed4f24370af8da4c16,223.104.160.72,"Mozilla/5.0 (Windows NT 10.0; Win64; x64) AppleWebKit/537.36 (KHTML, like Gecko) Chrome/120.0.0.0 Safari/537.36 Edg/120.0.0.0",WebKit,Windows,10,null,"zh-CN,zh;q=0.9,en;q=0.8,en-GB;q=0.7,en-US;q=0.6","""",21032,"""","""","""","""","""","[{""page_index"":0,""viewing_time"":21031}]","""","""",闺蜜,""""
"""","""","""",Edge,120.0.0.0,"""","""","""","""","""","""",html-button-response,8,155357,0.0-5.0-0.0-3.0,135,1,2023/12/21 8:34,88e23e57077159ed4f24370af8da4c16,223.104.160.72,"Mozilla/5.0 (Windows NT 10.0; Win64; x64) AppleWebKit/537.36 (KHTML, like Gecko) Chrome/120.0.0.0 Safari/537.36 Edg/120.0.0.0",WebKit,Windows,10,null,"zh-CN,zh;q=0.9,en;q=0.8,en-GB;q=0.7,en-US;q=0.6","""",25134,"""","""","""","""","""","""",<p class='attract'>以下有两个圆圈，一个代表你自己，一个代表刚刚你想象中的她，重叠部分代表你们的亲密程度，\n                              重叠部分越大代表你们之间越亲密，请选择以下哪个可以代表你们之间的亲密度</p>\n                              <img src='distance.png' width=85%>,3,distance,""""
"""","""","""",Edge,120.0.0.0,"""","""","""","""","""","""",instructions,9,164917,0.0-5.0-0.0-4.0,135,1,2023/12/21 8:34,88e23e57077159ed4f24370af8da4c16,223.104.160.72,"Mozilla/5.0 (Windows NT 10.0; Win64; x64) AppleWebKit/537.36 (KHTML, like Gecko) Chrome/120.0.0.0 Safari/537.36 Edg/120.0.0.0",WebKit,Windows,10,null,"zh-CN,zh;q=0.9,en;q=0.8,en-GB;q=0.7,en-US;q=0.6","""",9560,"""","""","""","""","""","[{""page_index"":0,""viewing_time"":9560}]","""","""","""",""""
"""","""","""",Edge,120.0.0.0,"""","""","""","""","""","""",html-button-response,10,170389,0.0-5.0-0.0-5.0,135,1,2023/12/21 8:34,88e23e57077159ed4f24370af8da4c16,223.104.160.72,"Mozilla/5.0 (Windows NT 10.0; Win64; x64) AppleWebKit/537.36 (KHTML, like Gecko) Chrome/120.0.0.0 Safari/537.36 Edg/120.0.0.0",WebKit,Windows,10,null,"zh-CN,zh;q=0.9,en;q=0.8,en-GB;q=0.7,en-US;q=0.6","""",5470,"""","""","""","""","""","""",<img src='practise.png'>\n                          <p class='attract'>该异性对您来说吸引力评分是</p>\n                          <p class='tips'>(1代表吸引力非常小，9代表吸引力非常大)</p>,1,post_test,practise.png
"""","""","""",Edge,120.0.0.0,"""","""","""","""","""","""",html-keyboard-response,11,179980,0.0-5.0-1.0,135,1,2023/12/21 8:34,88e23e57077159ed4f24370af8da4c16,223.104.160.72,"Mozilla/5.0 (Windows NT 10.0; Win64; x64) AppleWebKit/537.36 (KHTML, like Gecko) Chrome/120.0.0.0 Safari/537.36 Edg/120.0.0.0",WebKit,Windows,10,null,"zh-CN,zh;q=0.9,en;q=0.8,en-GB;q=0.7,en-US;q=0.6","""",9590,"""","""","""","""","""","""","<p class=""h2"">若对实验程序已经明白按“enter”开始正式实验，<br/>不明白可按“q”再练习一次或询问主试</p>",enter,pra_question,""""
"""","""","""",Edge,120.0.0.0,"""","""","""","""","""","""",html-keyboard-response,12,180491,0.0-6.0-0.0,135,1,2023/12/21 8:34,88e23e57077159ed4f24370af8da4c16,223.104.160.72,"Mozilla/5.0 (Windows NT 10.0; Win64; x64) AppleWebKit/537.36 (KHTML, like Gecko) Chrome/120.0.0.0 Safari/537.36 Edg/120.0.0.0",WebKit,Windows,10,null,"zh-CN,zh;q=0.9,en;q=0.8,en-GB;q=0.7,en-US;q=0.6","""",null,"""","""","""","""","""","""",+,null,"""",""""
"""","""","""",Edge,120.0.0.0,"""","""","""","""","""","""",html-button-response,13,185509,0.0-6.0-1.0,135,1,2023/12/21 8:34,88e23e57077159ed4f24370af8da4c16,223.104.160.72,"Mozilla/5.0 (Windows NT 10.0; Win64; x64) AppleWebKit/537.36 (KHTML, like Gecko) Chrome/120.0.0.0 Safari/537.36 Edg/120.0.0.0",WebKit,Windows,10,null,"zh-CN,zh;q=0.9,en;q=0.8,en-GB;q=0.7,en-US;q=0.6","""",5017,"""","""","""","""","""","""",<img src='nma-5.jpg'>\n                              <p class='attract'>该异性对您来说吸引力评分是</p>\n                              <p class='tips'>(1代表吸引力非常小，9代表吸引力非常大)</p>,1,pre_test,nma-5.jpg
"""","""","""",Edge,120.0.0.0,"""","""","""","""","""","""",instructions,14,191741,0.0-6.0-2.0,135,1,2023/12/21 8:34,88e23e57077159ed4f24370af8da4c16,223.104.160.72,"Mozilla/5.0 (Windows NT 10.0; Win64; x64) AppleWebKit/537.36 (KHTML, like Gecko) Chrome/120.0.0.0 Safari/537.36 Edg/120.0.0.0",WebKit,Windows,10,null,"zh-CN,zh;q=0.9,en;q=0.8,en-GB;q=0.7,en-US;q=0.6","""",6231,"""","""","""","""","""","[{""page_index"":0,""viewing_time"":6231}]","""","""",素不相识,""""
"""","""","""",Edge,120.0.0.0,"""","""","""","""","""","""",html-button-response,15,197021,0.0-6.0-3.0,135,1,2023/12/21 8:34,88e23e57077159ed4f24370af8da4c16,223.104.160.72,"Mozilla/5.0 (Windows NT 10.0; Win64; x64) AppleWebKit/537.36 (KHTML, like Gecko) Chrome/120.0.0.0 Safari/537.36 Edg/120.0.0.0",WebKit,Windows,10,null,"zh-CN,zh;q=0.9,en;q=0.8,en-GB;q=0.7,en-US;q=0.6","""",5279,"""","""","""","""","""","""",<p class='attract'>以下有两个圆圈，一个代表你自己，一个代表刚刚你想象中的她，重叠部分代表你们的亲密程度，\n                              重叠部分越大代表你们之间越亲密，请选择以下哪个可以代表你们之间的亲密度</p>\n                              <img src='distance.png' width=85%>,0,distance,""""
"""","""","""",Edge,120.0.0.0,"""","""","""","""","""","""",instructions,16,203405,0.0-6.0-4.0,135,1,2023/12/21 8:34,88e23e57077159ed4f24370af8da4c16,223.104.160.72,"Mozilla/5.0 (Windows NT 10.0; Win64; x64) AppleWebKit/537.36 (KHTML, like Gecko) Chrome/120.0.0.0 Safari/537.36 Edg/120.0.0.0",WebKit,Windows,10,null,"zh-CN,zh;q=0.9,en;q=0.8,en-GB;q=0.7,en-US;q=0.6","""",6383,"""","""","""","""","""","[{""page_index"":0,""viewing_time"":6383}]","""","""","""",""""
"""","""","""",Edge,120.0.0.0,"""","""","""","""","""","""",html-button-response,17,207429,0.0-6.0-5.0,135,1,2023/12/21 8:34,88e23e57077159ed4f24370af8da4c16,223.104.160.72,"Mozilla/5.0 (Windows NT 10.0; Win64; x64) AppleWebKit/537.36 (KHTML, like Gecko) Chrome/120.0.0.0 Safari/537.36 Edg/120.0.0.0",WebKit,Windows,10,null,"zh-CN,zh;q=0.9,en;q=0.8,en-GB;q=0.7,en-US;q=0.6","""",4023,"""","""","""","""","""","""",<img src='nma-5.jpg'>\n                          <p class='attract'>该异性对您来说吸引力评分是</p>\n                          <p class='tips'>(1代表吸引力非常小，9代表吸引力非常大)</p>,2,post_test,nma-5.jpg
"""","""","""",Edge,120.0.0.0,"""","""","""","""","""","""",html-keyboard-response,18,207931,0.0-6.0-0.1,135,1,2023/12/21 8:34,88e23e57077159ed4f24370af8da4c16,223.104.160.72,"Mozilla/5.0 (Windows NT 10.0; Win64; x64) AppleWebKit/537.36 (KHTML, like Gecko) Chrome/120.0.0.0 Safari/537.36 Edg/120.0.0.0",WebKit,Windows,10,null,"zh-CN,zh;q=0.9,en;q=0.8,en-GB;q=0.7,en-US;q=0.6","""",null,"""","""","""","""","""","""",+,null,"""",""""
"""","""","""",Edge,120.0.0.0,"""","""","""","""","""","""",html-button-response,19,210277,0.0-6.0-1.1,135,1,2023/12/21 8:34,88e23e57077159ed4f24370af8da4c16,223.104.160.72,"Mozilla/5.0 (Windows NT 10.0; Win64; x64) AppleWebKit/537.36 (KHTML, like Gecko) Chrome/120.0.0.0 Safari/537.36 Edg/120.0.0.0",WebKit,Windows,10,null,"zh-CN,zh;q=0.9,en;q=0.8,en-GB;q=0.7,en-US;q=0.6","""",2345,"""","""","""","""","""","""",<img src='lma-1.jpg'>\n                              <p class='attract'>该异性对您来说吸引力评分是</p>\n                              <p class='tips'>(1代表吸引力非常小，9代表吸引力非常大)</p>,0,pre_test,lma-1.jpg
"""","""","""",Edge,120.0.0.0,"""","""","""","""","""","""",instructions,20,217717,0.0-6.0-2.1,135,1,2023/12/21 8:34,88e23e57077159ed4f24370af8da4c16,223.104.160.72,"Mozilla/5.0 (Windows NT 10.0; Win64; x64) AppleWebKit/537.36 (KHTML, like Gecko) Chrome/120.0.0.0 Safari/537.36 Edg/120.0.0.0",WebKit,Windows,10,null,"zh-CN,zh;q=0.9,en;q=0.8,en-GB;q=0.7,en-US;q=0.6","""",7439,"""","""","""","""","""","[{""page_index"":0,""viewing_time"":7439}]","""","""",喜欢的明星/小说人物,""""
"""","""","""",Edge,120.0.0.0,"""","""","""","""","""","""",html-button-response,21,225685,0.0-6.0-3.1,135,1,2023/12/21 8:34,88e23e57077159ed4f24370af8da4c16,223.104.160.72,"Mozilla/5.0 (Windows NT 10.0; Win64; x64) AppleWebKit/537.36 (KHTML, like Gecko) Chrome/120.0.0.0 Safari/537.36 Edg/120.0.0.0",WebKit,Windows,10,null,"zh-CN,zh;q=0.9,en;q=0.8,en-GB;q=0.7,en-US;q=0.6","""",7967,"""","""","""","""","""","""",<p class='attract'>以下有两个圆圈，一个代表你自己，一个代表刚刚你想象中的她，重叠部分代表你们的亲密程度，\n                              重叠部分越大代表你们之间越亲密，请选择以下哪个可以代表你们之间的亲密度</p>\n                              <img src='distance.png' width=85%>,1,distance,""""
"""","""","""",Edge,120.0.0.0,"""","""","""","""","""","""",instructions,22,230661,0.0-6.0-4.1,135,1,2023/12/21 8:34,88e23e57077159ed4f24370af8da4c16,223.104.160.72,"Mozilla/5.0 (Windows NT 10.0; Win64; x64) AppleWebKit/537.36 (KHTML, like Gecko) Chrome/120.0.0.0 Safari/537.36 Edg/120.0.0.0",WebKit,Windows,10,null,"zh-CN,zh;q=0.9,en;q=0.8,en-GB;q=0.7,en-US;q=0.6","""",4975,"""","""","""","""","""","[{""page_index"":0,""viewing_time"":4975}]","""","""","""",""""
"""","""","""",Edge,120.0.0.0,"""","""","""","""","""","""",html-button-response,23,233917,0.0-6.0-5.1,135,1,2023/12/21 8:34,88e23e57077159ed4f24370af8da4c16,223.104.160.72,"Mozilla/5.0 (Windows NT 10.0; Win64; x64) AppleWebKit/537.36 (KHTML, like Gecko) Chrome/120.0.0.0 Safari/537.36 Edg/120.0.0.0",WebKit,Windows,10,null,"zh-CN,zh;q=0.9,en;q=0.8,en-GB;q=0.7,en-US;q=0.6","""",3255,"""","""","""","""","""","""",<img src='lma-1.jpg'>\n                          <p class='attract'>该异性对您来说吸引力评分是</p>\n                          <p class='tips'>(1代表吸引力非常小，9代表吸引力非常大)</p>,1,post_test,lma-1.jpg
"""","""","""",Edge,120.0.0.0,"""","""","""","""","""","""",html-keyboard-response,24,234422,0.0-6.0-0.2,135,1,2023/12/21 8:34,88e23e57077159ed4f24370af8da4c16,223.104.160.72,"Mozilla/5.0 (Windows NT 10.0; Win64; x64) AppleWebKit/537.36 (KHTML, like Gecko) Chrome/120.0.0.0 Safari/537.36 Edg/120.0.0.0",WebKit,Windows,10,null,"zh-CN,zh;q=0.9,en;q=0.8,en-GB;q=0.7,en-US;q=0.6","""",null,"""","""","""","""","""","""",+,null,"""",""""
"""","""","""",Edge,120.0.0.0,"""","""","""","""","""","""",html-button-response,25,239382,0.0-6.0-1.2,135,1,2023/12/21 8:34,88e23e57077159ed4f24370af8da4c16,223.104.160.72,"Mozilla/5.0 (Windows NT 10.0; Win64; x64) AppleWebKit/537.36 (KHTML, like Gecko) Chrome/120.0.0.0 Safari/537.36 Edg/120.0.0.0",WebKit,Windows,10,null,"zh-CN,zh;q=0.9,en;q=0.8,en-GB;q=0.7,en-US;q=0.6","""",4959,"""","""","""","""","""","""",<img src='pma-9.png'>\n                              <p class='attract'>该异性对您来说吸引力评分是</p>\n                              <p class='tips'>(1代表吸引力非常小，9代表吸引力非常大)</p>,6,pre_test,pma-9.png
"""","""","""",Edge,120.0.0.0,"""","""","""","""","""","""",instructions,26,240989,0.0-6.0-2.2,135,1,2023/12/21 8:34,88e23e57077159ed4f24370af8da4c16,223.104.160.72,"Mozilla/5.0 (Windows NT 10.0; Win64; x64) AppleWebKit/537.36 (KHTML, like Gecko) Chrome/120.0.0.0 Safari/537.36 Edg/120.0.0.0",WebKit,Windows,10,null,"zh-CN,zh;q=0.9,en;q=0.8,en-GB;q=0.7,en-US;q=0.6","""",1607,"""","""","""","""","""","[{""page_index"":0,""viewing_time"":1606}]","""","""",素不相识,""""
"""","""","""",Edge,120.0.0.0,"""","""","""","""","""","""",html-button-response,27,244269,0.0-6.0-3.2,135,1,2023/12/21 8:34,88e23e57077159ed4f24370af8da4c16,223.104.160.72,"Mozilla/5.0 (Windows NT 10.0; Win64; x64) AppleWebKit/537.36 (KHTML, like Gecko) Chrome/120.0.0.0 Safari/537.36 Edg/120.0.0.0",WebKit,Windows,10,null,"zh-CN,zh;q=0.9,en;q=0.8,en-GB;q=0.7,en-US;q=0.6","""",3279,"""","""","""","""","""","""",<p class='attract'>以下有两个圆圈，一个代表你自己，一个代表刚刚你想象中的她，重叠部分代表你们的亲密程度，\n                              重叠部分越大代表你们之间越亲密，请选择以下哪个可以代表你们之间的亲密度</p>\n                              <img src='distance.png' width=85%>,0,distance,""""
"""","""","""",Edge,120.0.0.0,"""","""","""","""","""","""",instructions,28,246701,0.0-6.0-4.2,135,1,2023/12/21 8:34,88e23e57077159ed4f24370af8da4c16,223.104.160.72,"Mozilla/5.0 (Windows NT 10.0; Win64; x64) AppleWebKit/537.36 (KHTML, like Gecko) Chrome/120.0.0.0 Safari/537.36 Edg/120.0.0.0",WebKit,Windows,10,null,"zh-CN,zh;q=0.9,en;q=0.8,en-GB;q=0.7,en-US;q=0.6","""",2431,"""","""","""","""","""","[{""page_index"":0,""viewing_time"":2431}]","""","""","""",""""
"""","""","""",Edge,120.0.0.0,"""","""","""","""","""","""",html-button-response,29,247669,0.0-6.0-5.2,135,1,2023/12/21 8:34,88e23e57077159ed4f24370af8da4c16,223.104.160.72,"Mozilla/5.0 (Windows NT 10.0; Win64; x64) AppleWebKit/537.36 (KHTML, like Gecko) Chrome/120.0.0.0 Safari/537.36 Edg/120.0.0.0",WebKit,Windows,10,null,"zh-CN,zh;q=0.9,en;q=0.8,en-GB;q=0.7,en-US;q=0.6","""",967,"""","""","""","""","""","""",<img src='pma-9.png'>\n                          <p class='attract'>该异性对您来说吸引力评分是</p>\n                          <p class='tips'>(1代表吸引力非常小，9代表吸引力非常大)</p>,7,post_test,pma-9.png
"""","""","""",Edge,120.0.0.0,"""","""","""","""","""","""",html-keyboard-response,30,248179,0.0-6.0-0.3,135,1,2023/12/21 8:34,88e23e57077159ed4f24370af8da4c16,223.104.160.72,"Mozilla/5.0 (Windows NT 10.0; Win64; x64) AppleWebKit/537.36 (KHTML, like Gecko) Chrome/120.0.0.0 Safari/537.36 Edg/120.0.0.0",WebKit,Windows,10,null,"zh-CN,zh;q=0.9,en;q=0.8,en-GB;q=0.7,en-US;q=0.6","""",null,"""","""","""","""","""","""",+,null,"""",""""
"""","""","""",Edge,120.0.0.0,"""","""","""","""","""","""",html-button-response,31,255021,0.0-6.0-1.3,135,1,2023/12/21 8:34,88e23e57077159ed4f24370af8da4c16,223.104.160.72,"Mozilla/5.0 (Windows NT 10.0; Win64; x64) AppleWebKit/537.36 (KHTML, like Gecko) Chrome/120.0.0.0 Safari/537.36 Edg/120.0.0.0",WebKit,Windows,10,null,"zh-CN,zh;q=0.9,en;q=0.8,en-GB;q=0.7,en-US;q=0.6","""",6840,"""","""","""","""","""","""",<img src='pmj-12.png'>\n                              <p class='attract'>该异性对您来说吸引力评分是</p>\n                              <p class='tips'>(1代表吸引力非常小，9代表吸引力非常大)</p>,3,pre_test,pmj-12.png
"""","""","""",Edge,120.0.0.0,"""","""","""","""","""","""",instructions,32,256949,0.0-6.0-2.3,135,1,2023/12/21 8:34,88e23e57077159ed4f24370af8da4c16,223.104.160.72,"Mozilla/5.0 (Windows NT 10.0; Win64; x64) AppleWebKit/537.36 (KHTML, like Gecko) Chrome/120.0.0.0 Safari/537.36 Edg/120.0.0.0",WebKit,Windows,10,null,"zh-CN,zh;q=0.9,en;q=0.8,en-GB;q=0.7,en-US;q=0.6","""",1927,"""","""","""","""","""","[{""page_index"":0,""viewing_time"":1927}]","""","""",闺蜜,""""
"""","""","""",Edge,120.0.0.0,"""","""","""","""","""","""",html-button-response,33,259437,0.0-6.0-3.3,135,1,2023/12/21 8:34,88e23e57077159ed4f24370af8da4c16,223.104.160.72,"Mozilla/5.0 (Windows NT 10.0; Win64; x64) AppleWebKit/537.36 (KHTML, like Gecko) Chrome/120.0.0.0 Safari/537.36 Edg/120.0.0.0",WebKit,Windows,10,null,"zh-CN,zh;q=0.9,en;q=0.8,en-GB;q=0.7,en-US;q=0.6","""",2487,"""","""","""","""","""","""",<p class='attract'>以下有两个圆圈，一个代表你自己，一个代表刚刚你想象中的她，重叠部分代表你们的亲密程度，\n                              重叠部分越大代表你们之间越亲密，请选择以下哪个可以代表你们之间的亲密度</p>\n                              <img src='distance.png' width=85%>,3,distance,""""
"""","""","""",Edge,120.0.0.0,"""","""","""","""","""","""",instructions,34,263381,0.0-6.0-4.3,135,1,2023/12/21 8:34,88e23e57077159ed4f24370af8da4c16,223.104.160.72,"Mozilla/5.0 (Windows NT 10.0; Win64; x64) AppleWebKit/537.36 (KHTML, like Gecko) Chrome/120.0.0.0 Safari/537.36 Edg/120.0.0.0",WebKit,Windows,10,null,"zh-CN,zh;q=0.9,en;q=0.8,en-GB;q=0.7,en-US;q=0.6","""",3943,"""","""","""","""","""","[{""page_index"":0,""viewing_time"":3943}]","""","""","""",""""
"""","""","""",Edge,120.0.0.0,"""","""","""","""","""","""",html-button-response,35,266245,0.0-6.0-5.3,135,1,2023/12/21 8:34,88e23e57077159ed4f24370af8da4c16,223.104.160.72,"Mozilla/5.0 (Windows NT 10.0; Win64; x64) AppleWebKit/537.36 (KHTML, like Gecko) Chrome/120.0.0.0 Safari/537.36 Edg/120.0.0.0",WebKit,Windows,10,null,"zh-CN,zh;q=0.9,en;q=0.8,en-GB;q=0.7,en-US;q=0.6","""",2863,"""","""","""","""","""","""",<img src='pmj-12.png'>\n                          <p class='attract'>该异性对您来说吸引力评分是</p>\n                          <p class='tips'>(1代表吸引力非常小，9代表吸引力非常大)</p>,2,post_test,pmj-12.png
"""","""","""",Edge,120.0.0.0,"""","""","""","""","""","""",html-keyboard-response,36,266749,0.0-6.0-0.4,135,1,2023/12/21 8:34,88e23e57077159ed4f24370af8da4c16,223.104.160.72,"Mozilla/5.0 (Windows NT 10.0; Win64; x64) AppleWebKit/537.36 (KHTML, like Gecko) Chrome/120.0.0.0 Safari/537.36 Edg/120.0.0.0",WebKit,Windows,10,null,"zh-CN,zh;q=0.9,en;q=0.8,en-GB;q=0.7,en-US;q=0.6","""",null,"""","""","""","""","""","""",+,null,"""",""""
"""","""","""",Edge,120.0.0.0,"""","""","""","""","""","""",html-button-response,37,269349,0.0-6.0-1.4,135,1,2023/12/21 8:34,88e23e57077159ed4f24370af8da4c16,223.104.160.72,"Mozilla/5.0 (Windows NT 10.0; Win64; x64) AppleWebKit/537.36 (KHTML, like Gecko) Chrome/120.0.0.0 Safari/537.36 Edg/120.0.0.0",WebKit,Windows,10,null,"zh-CN,zh;q=0.9,en;q=0.8,en-GB;q=0.7,en-US;q=0.6","""",2599,"""","""","""","""","""","""",<img src='lma-1.jpg'>\n                              <p class='attract'>该异性对您来说吸引力评分是</p>\n                              <p class='tips'>(1代表吸引力非常小，9代表吸引力非常大)</p>,0,pre_test,lma-1.jpg
"""","""","""",Edge,120.0.0.0,"""","""","""","""","""","""",instructions,38,270829,0.0-6.0-2.4,135,1,2023/12/21 8:34,88e23e57077159ed4f24370af8da4c16,223.104.160.72,"Mozilla/5.0 (Windows NT 10.0; Win64; x64) AppleWebKit/537.36 (KHTML, like Gecko) Chrome/120.0.0.0 Safari/537.36 Edg/120.0.0.0",WebKit,Windows,10,null,"zh-CN,zh;q=0.9,en;q=0.8,en-GB;q=0.7,en-US;q=0.6","""",1479,"""","""","""","""","""","[{""page_index"":0,""viewing_time"":1479}]","""","""",闺蜜,""""
"""","""","""",Edge,120.0.0.0,"""","""","""","""","""","""",html-button-response,39,275853,0.0-6.0-3.4,135,1,2023/12/21 8:34,88e23e57077159ed4f24370af8da4c16,223.104.160.72,"Mozilla/5.0 (Windows NT 10.0; Win64; x64) AppleWebKit/537.36 (KHTML, like Gecko) Chrome/120.0.0.0 Safari/537.36 Edg/120.0.0.0",WebKit,Windows,10,null,"zh-CN,zh;q=0.9,en;q=0.8,en-GB;q=0.7,en-US;q=0.6","""",5022,"""","""","""","""","""","""",<p class='attract'>以下有两个圆圈，一个代表你自己，一个代表刚刚你想象中的她，重叠部分代表你们的亲密程度，\n                              重叠部分越大代表你们之间越亲密，请选择以下哪个可以代表你们之间的亲密度</p>\n                              <img src='distance.png' width=85%>,3,distance,""""
"""","""","""",Edge,120.0.0.0,"""","""","""","""","""","""",instructions,40,280349,0.0-6.0-4.4,135,1,2023/12/21 8:34,88e23e57077159ed4f24370af8da4c16,223.104.160.72,"Mozilla/5.0 (Windows NT 10.0; Win64; x64) AppleWebKit/537.36 (KHTML, like Gecko) Chrome/120.0.0.0 Safari/537.36 Edg/120.0.0.0",WebKit,Windows,10,null,"zh-CN,zh;q=0.9,en;q=0.8,en-GB;q=0.7,en-US;q=0.6","""",4494,"""","""","""","""","""","[{""page_index"":0,""viewing_time"":4494}]","""","""","""",""""
"""","""","""",Edge,120.0.0.0,"""","""","""","""","""","""",html-button-response,41,281277,0.0-6.0-5.4,135,1,2023/12/21 8:34,88e23e57077159ed4f24370af8da4c16,223.104.160.72,"Mozilla/5.0 (Windows NT 10.0; Win64; x64) AppleWebKit/537.36 (KHTML, like Gecko) Chrome/120.0.0.0 Safari/537.36 Edg/120.0.0.0",WebKit,Windows,10,null,"zh-CN,zh;q=0.9,en;q=0.8,en-GB;q=0.7,en-US;q=0.6","""",927,"""","""","""","""","""","""",<img src='lma-1.jpg'>\n                          <p class='attract'>该异性对您来说吸引力评分是</p>\n                          <p class='tips'>(1代表吸引力非常小，9代表吸引力非常大)</p>,1,post_test,lma-1.jpg
"""","""","""",Edge,120.0.0.0,"""","""","""","""","""","""",html-keyboard-response,42,281785,0.0-6.0-0.5,135,1,2023/12/21 8:34,88e23e57077159ed4f24370af8da4c16,223.104.160.72,"Mozilla/5.0 (Windows NT 10.0; Win64; x64) AppleWebKit/537.36 (KHTML, like Gecko) Chrome/120.0.0.0 Safari/537.36 Edg/120.0.0.0",WebKit,Windows,10,null,"zh-CN,zh;q=0.9,en;q=0.8,en-GB;q=0.7,en-US;q=0.6","""",null,"""","""","""","""","""","""",+,null,"""",""""
"""","""","""",Edge,120.0.0.0,"""","""","""","""","""","""",html-button-response,43,293173,0.0-6.0-1.5,135,1,2023/12/21 8:34,88e23e57077159ed4f24370af8da4c16,223.104.160.72,"Mozilla/5.0 (Windows NT 10.0; Win64; x64) AppleWebKit/537.36 (KHTML, like Gecko) Chrome/120.0.0.0 Safari/537.36 Edg/120.0.0.0",WebKit,Windows,10,null,"zh-CN,zh;q=0.9,en;q=0.8,en-GB;q=0.7,en-US;q=0.6","""",11386,"""","""","""","""","""","""",<img src='lma-2.jpg'>\n                              <p class='attract'>该异性对您来说吸引力评分是</p>\n                              <p class='tips'>(1代表吸引力非常小，9代表吸引力非常大)</p>,1,pre_test,lma-2.jpg
"""","""","""",Edge,120.0.0.0,"""","""","""","""","""","""",instructions,44,297837,0.0-6.0-2.5,135,1,2023/12/21 8:34,88e23e57077159ed4f24370af8da4c16,223.104.160.72,"Mozilla/5.0 (Windows NT 10.0; Win64; x64) AppleWebKit/537.36 (KHTML, like Gecko) Chrome/120.0.0.0 Safari/537.36 Edg/120.0.0.0",WebKit,Windows,10,null,"zh-CN,zh;q=0.9,en;q=0.8,en-GB;q=0.7,en-US;q=0.6","""",4663,"""","""","""","""","""","[{""page_index"":0,""viewing_time"":4663}]","""","""",闺蜜,""""
"""","""","""",Edge,120.0.0.0,"""","""","""","""","""","""",html-button-response,45,304709,0.0-6.0-3.5,135,1,2023/12/21 8:34,88e23e57077159ed4f24370af8da4c16,223.104.160.72,"Mozilla/5.0 (Windows NT 10.0; Win64; x64) AppleWebKit/537.36 (KHTML, like Gecko) Chrome/120.0.0.0 Safari/537.36 Edg/120.0.0.0",WebKit,Windows,10,null,"zh-CN,zh;q=0.9,en;q=0.8,en-GB;q=0.7,en-US;q=0.6","""",6871,"""","""","""","""","""","""",<p class='attract'>以下有两个圆圈，一个代表你自己，一个代表刚刚你想象中的她，重叠部分代表你们的亲密程度，\n                              重叠部分越大代表你们之间越亲密，请选择以下哪个可以代表你们之间的亲密度</p>\n                              <img src='distance.png' width=85%>,4,distance,""""
"""","""","""",Edge,120.0.0.0,"""","""","""","""","""","""",instructions,46,307117,0.0-6.0-4.5,135,1,2023/12/21 8:34,88e23e57077159ed4f24370af8da4c16,223.104.160.72,"Mozilla/5.0 (Windows NT 10.0; Win64; x64) AppleWebKit/537.36 (KHTML, like Gecko) Chrome/120.0.0.0 Safari/537.36 Edg/120.0.0.0",WebKit,Windows,10,null,"zh-CN,zh;q=0.9,en;q=0.8,en-GB;q=0.7,en-US;q=0.6","""",2406,"""","""","""","""","""","[{""page_index"":0,""viewing_time"":2406}]","""","""","""",""""
"""","""","""",Edge,120.0.0.0,"""","""","""","""","""","""",html-button-response,47,307981,0.0-6.0-5.5,135,1,2023/12/21 8:34,88e23e57077159ed4f24370af8da4c16,223.104.160.72,"Mozilla/5.0 (Windows NT 10.0; Win64; x64) AppleWebKit/537.36 (KHTML, like Gecko) Chrome/120.0.0.0 Safari/537.36 Edg/120.0.0.0",WebKit,Windows,10,null,"zh-CN,zh;q=0.9,en;q=0.8,en-GB;q=0.7,en-US;q=0.6","""",863,"""","""","""","""","""","""",<img src='lma-2.jpg'>\n                          <p class='attract'>该异性对您来说吸引力评分是</p>\n                          <p class='tips'>(1代表吸引力非常小，9代表吸引力非常大)</p>,3,post_test,lma-2.jpg
"""","""","""",Edge,120.0.0.0,"""","""","""","""","""","""",html-keyboard-response,48,308496,0.0-6.0-0.6,135,1,2023/12/21 8:34,88e23e57077159ed4f24370af8da4c16,223.104.160.72,"Mozilla/5.0 (Windows NT 10.0; Win64; x64) AppleWebKit/537.36 (KHTML, like Gecko) Chrome/120.0.0.0 Safari/537.36 Edg/120.0.0.0",WebKit,Windows,10,null,"zh-CN,zh;q=0.9,en;q=0.8,en-GB;q=0.7,en-US;q=0.6","""",null,"""","""","""","""","""","""",+,null,"""",""""
"""","""","""",Edge,120.0.0.0,"""","""","""","""","""","""",html-button-response,49,314021,0.0-6.0-1.6,135,1,2023/12/21 8:34,88e23e57077159ed4f24370af8da4c16,223.104.160.72,"Mozilla/5.0 (Windows NT 10.0; Win64; x64) AppleWebKit/537.36 (KHTML, like Gecko) Chrome/120.0.0.0 Safari/537.36 Edg/120.0.0.0",WebKit,Windows,10,null,"zh-CN,zh;q=0.9,en;q=0.8,en-GB;q=0.7,en-US;q=0.6","""",5524,"""","""","""","""","""","""",<img src='pmj-12.png'>\n                              <p class='attract'>该异性对您来说吸引力评分是</p>\n                              <p class='tips'>(1代表吸引力非常小，9代表吸引力非常大)</p>,4,pre_test,pmj-12.png
"""","""","""",Edge,120.0.0.0,"""","""","""","""","""","""",instructions,50,315333,0.0-6.0-2.6,135,1,2023/12/21 8:34,88e23e57077159ed4f24370af8da4c16,223.104.160.72,"Mozilla/5.0 (Windows NT 10.0; Win64; x64) AppleWebKit/537.36 (KHTML, like Gecko) Chrome/120.0.0.0 Safari/537.36 Edg/120.0.0.0",WebKit,Windows,10,null,"zh-CN,zh;q=0.9,en;q=0.8,en-GB;q=0.7,en-US;q=0.6","""",1311,"""","""","""","""","""","[{""page_index"":0,""viewing_time"":1311}]","""","""",素不相识,""""
"""","""","""",Edge,120.0.0.0,"""","""","""","""","""","""",html-button-response,51,316925,0.0-6.0-3.6,135,1,2023/12/21 8:34,88e23e57077159ed4f24370af8da4c16,223.104.160.72,"Mozilla/5.0 (Windows NT 10.0; Win64; x64) AppleWebKit/537.36 (KHTML, like Gecko) Chrome/120.0.0.0 Safari/537.36 Edg/120.0.0.0",WebKit,Windows,10,null,"zh-CN,zh;q=0.9,en;q=0.8,en-GB;q=0.7,en-US;q=0.6","""",1590,"""","""","""","""","""","""",<p class='attract'>以下有两个圆圈，一个代表你自己，一个代表刚刚你想象中的她，重叠部分代表你们的亲密程度，\n                              重叠部分越大代表你们之间越亲密，请选择以下哪个可以代表你们之间的亲密度</p>\n                              <img src='distance.png' width=85%>,0,distance,""""
"""","""","""",Edge,120.0.0.0,"""","""","""","""","""","""",instructions,52,320293,0.0-6.0-4.6,135,1,2023/12/21 8:34,88e23e57077159ed4f24370af8da4c16,223.104.160.72,"Mozilla/5.0 (Windows NT 10.0; Win64; x64) AppleWebKit/537.36 (KHTML, like Gecko) Chrome/120.0.0.0 Safari/537.36 Edg/120.0.0.0",WebKit,Windows,10,null,"zh-CN,zh;q=0.9,en;q=0.8,en-GB;q=0.7,en-US;q=0.6","""",3367,"""","""","""","""","""","[{""page_index"":0,""viewing_time"":3367}]","""","""","""",""""
"""","""","""",Edge,120.0.0.0,"""","""","""","""","""","""",html-button-response,53,323413,0.0-6.0-5.6,135,1,2023/12/21 8:34,88e23e57077159ed4f24370af8da4c16,223.104.160.72,"Mozilla/5.0 (Windows NT 10.0; Win64; x64) AppleWebKit/537.36 (KHTML, like Gecko) Chrome/120.0.0.0 Safari/537.36 Edg/120.0.0.0",WebKit,Windows,10,null,"zh-CN,zh;q=0.9,en;q=0.8,en-GB;q=0.7,en-US;q=0.6","""",3119,"""","""","""","""","""","""",<img src='pmj-12.png'>\n                          <p class='attract'>该异性对您来说吸引力评分是</p>\n                          <p class='tips'>(1代表吸引力非常小，9代表吸引力非常大)</p>,2,post_test,pmj-12.png
"""","""","""",Edge,120.0.0.0,"""","""","""","""","""","""",html-keyboard-response,54,323928,0.0-6.0-0.7,135,1,2023/12/21 8:34,88e23e57077159ed4f24370af8da4c16,223.104.160.72,"Mozilla/5.0 (Windows NT 10.0; Win64; x64) AppleWebKit/537.36 (KHTML, like Gecko) Chrome/120.0.0.0 Safari/537.36 Edg/120.0.0.0",WebKit,Windows,10,null,"zh-CN,zh;q=0.9,en;q=0.8,en-GB;q=0.7,en-US;q=0.6","""",null,"""","""","""","""","""","""",+,null,"""",""""
"""","""","""",Edge,120.0.0.0,"""","""","""","""","""","""",html-button-response,55,336037,0.0-6.0-1.7,135,1,2023/12/21 8:34,88e23e57077159ed4f24370af8da4c16,223.104.160.72,"Mozilla/5.0 (Windows NT 10.0; Win64; x64) AppleWebKit/537.36 (KHTML, like Gecko) Chrome/120.0.0.0 Safari/537.36 Edg/120.0.0.0",WebKit,Windows,10,null,"zh-CN,zh;q=0.9,en;q=0.8,en-GB;q=0.7,en-US;q=0.6","""",12107,"""","""","""","""","""","""",<img src='lmj-3.png'>\n                              <p class='attract'>该异性对您来说吸引力评分是</p>\n                              <p class='tips'>(1代表吸引力非常小，9代表吸引力非常大)</p>,1,pre_test,lmj-3.png
"""","""","""",Edge,120.0.0.0,"""","""","""","""","""","""",instructions,56,337445,0.0-6.0-2.7,135,1,2023/12/21 8:34,88e23e57077159ed4f24370af8da4c16,223.104.160.72,"Mozilla/5.0 (Windows NT 10.0; Win64; x64) AppleWebKit/537.36 (KHTML, like Gecko) Chrome/120.0.0.0 Safari/537.36 Edg/120.0.0.0",WebKit,Windows,10,null,"zh-CN,zh;q=0.9,en;q=0.8,en-GB;q=0.7,en-US;q=0.6","""",1407,"""","""","""","""","""","[{""page_index"":0,""viewing_time"":1406}]","""","""",素不相识,""""
"""","""","""",Edge,120.0.0.0,"""","""","""","""","""","""",html-button-response,57,340405,0.0-6.0-3.7,135,1,2023/12/21 8:34,88e23e57077159ed4f24370af8da4c16,223.104.160.72,"Mozilla/5.0 (Windows NT 10.0; Win64; x64) AppleWebKit/537.36 (KHTML, like Gecko) Chrome/120.0.0.0 Safari/537.36 Edg/120.0.0.0",WebKit,Windows,10,null,"zh-CN,zh;q=0.9,en;q=0.8,en-GB;q=0.7,en-US;q=0.6","""",2959,"""","""","""","""","""","""",<p class='attract'>以下有两个圆圈，一个代表你自己，一个代表刚刚你想象中的她，重叠部分代表你们的亲密程度，\n                              重叠部分越大代表你们之间越亲密，请选择以下哪个可以代表你们之间的亲密度</p>\n                              <img src='distance.png' width=85%>,0,distance,""""
"""","""","""",Edge,120.0.0.0,"""","""","""","""","""","""",instructions,58,341957,0.0-6.0-4.7,135,1,2023/12/21 8:34,88e23e57077159ed4f24370af8da4c16,223.104.160.72,"Mozilla/5.0 (Windows NT 10.0; Win64; x64) AppleWebKit/537.36 (KHTML, like Gecko) Chrome/120.0.0.0 Safari/537.36 Edg/120.0.0.0",WebKit,Windows,10,null,"zh-CN,zh;q=0.9,en;q=0.8,en-GB;q=0.7,en-US;q=0.6","""",1551,"""","""","""","""","""","[{""page_index"":0,""viewing_time"":1551}]","""","""","""",""""
"""","""","""",Edge,120.0.0.0,"""","""","""","""","""","""",html-button-response,59,346325,0.0-6.0-5.7,135,1,2023/12/21 8:34,88e23e57077159ed4f24370af8da4c16,223.104.160.72,"Mozilla/5.0 (Windows NT 10.0; Win64; x64) AppleWebKit/537.36 (KHTML, like Gecko) Chrome/120.0.0.0 Safari/537.36 Edg/120.0.0.0",WebKit,Windows,10,null,"zh-CN,zh;q=0.9,en;q=0.8,en-GB;q=0.7,en-US;q=0.6","""",4366,"""","""","""","""","""","""",<img src='lmj-3.png'>\n                          <p class='attract'>该异性对您来说吸引力评分是</p>\n                          <p class='tips'>(1代表吸引力非常小，9代表吸引力非常大)</p>,0,post_test,lmj-3.png
"""","""","""",Edge,120.0.0.0,"""","""","""","""","""","""",html-keyboard-response,60,346829,0.0-6.0-0.8,135,1,2023/12/21 8:34,88e23e57077159ed4f24370af8da4c16,223.104.160.72,"Mozilla/5.0 (Windows NT 10.0; Win64; x64) AppleWebKit/537.36 (KHTML, like Gecko) Chrome/120.0.0.0 Safari/537.36 Edg/120.0.0.0",WebKit,Windows,10,null,"zh-CN,zh;q=0.9,en;q=0.8,en-GB;q=0.7,en-US;q=0.6","""",null,"""","""","""","""","""","""",+,null,"""",""""
"""","""","""",Edge,120.0.0.0,"""","""","""","""","""","""",html-button-response,61,350757,0.0-6.0-1.8,135,1,2023/12/21 8:34,88e23e57077159ed4f24370af8da4c16,223.104.160.72,"Mozilla/5.0 (Windows NT 10.0; Win64; x64) AppleWebKit/537.36 (KHTML, like Gecko) Chrome/120.0.0.0 Safari/537.36 Edg/120.0.0.0",WebKit,Windows,10,null,"zh-CN,zh;q=0.9,en;q=0.8,en-GB;q=0.7,en-US;q=0.6","""",3927,"""","""","""","""","""","""",<img src='nma-6.png'>\n                              <p class='attract'>该异性对您来说吸引力评分是</p>\n                              <p class='tips'>(1代表吸引力非常小，9代表吸引力非常大)</p>,1,pre_test,nma-6.png
"""","""","""",Edge,120.0.0.0,"""","""","""","""","""","""",instructions,62,351917,0.0-6.0-2.8,135,1,2023/12/21 8:34,88e23e57077159ed4f24370af8da4c16,223.104.160.72,"Mozilla/5.0 (Windows NT 10.0; Win64; x64) AppleWebKit/537.36 (KHTML, like Gecko) Chrome/120.0.0.0 Safari/537.36 Edg/120.0.0.0",WebKit,Windows,10,null,"zh-CN,zh;q=0.9,en;q=0.8,en-GB;q=0.7,en-US;q=0.6","""",1159,"""","""","""","""","""","[{""page_index"":0,""viewing_time"":1158}]","""","""",素不相识,""""
"""","""","""",Edge,120.0.0.0,"""","""","""","""","""","""",html-button-response,63,356589,0.0-6.0-3.8,135,1,2023/12/21 8:34,88e23e57077159ed4f24370af8da4c16,223.104.160.72,"Mozilla/5.0 (Windows NT 10.0; Win64; x64) AppleWebKit/537.36 (KHTML, like Gecko) Chrome/120.0.0.0 Safari/537.36 Edg/120.0.0.0",WebKit,Windows,10,null,"zh-CN,zh;q=0.9,en;q=0.8,en-GB;q=0.7,en-US;q=0.6","""",4670,"""","""","""","""","""","""",<p class='attract'>以下有两个圆圈，一个代表你自己，一个代表刚刚你想象中的她，重叠部分代表你们的亲密程度，\n                              重叠部分越大代表你们之间越亲密，请选择以下哪个可以代表你们之间的亲密度</p>\n                              <img src='distance.png' width=85%>,0,distance,""""
"""","""","""",Edge,120.0.0.0,"""","""","""","""","""","""",instructions,64,358309,0.0-6.0-4.8,135,1,2023/12/21 8:34,88e23e57077159ed4f24370af8da4c16,223.104.160.72,"Mozilla/5.0 (Windows NT 10.0; Win64; x64) AppleWebKit/537.36 (KHTML, like Gecko) Chrome/120.0.0.0 Safari/537.36 Edg/120.0.0.0",WebKit,Windows,10,null,"zh-CN,zh;q=0.9,en;q=0.8,en-GB;q=0.7,en-US;q=0.6","""",1718,"""","""","""","""","""","[{""page_index"":0,""viewing_time"":1718}]","""","""","""",""""
"""","""","""",Edge,120.0.0.0,"""","""","""","""","""","""",html-button-response,65,360909,0.0-6.0-5.8,135,1,2023/12/21 8:34,88e23e57077159ed4f24370af8da4c16,223.104.160.72,"Mozilla/5.0 (Windows NT 10.0; Win64; x64) AppleWebKit/537.36 (KHTML, like Gecko) Chrome/120.0.0.0 Safari/537.36 Edg/120.0.0.0",WebKit,Windows,10,null,"zh-CN,zh;q=0.9,en;q=0.8,en-GB;q=0.7,en-US;q=0.6","""",2599,"""","""","""","""","""","""",<img src='nma-6.png'>\n                          <p class='attract'>该异性对您来说吸引力评分是</p>\n                          <p class='tips'>(1代表吸引力非常小，9代表吸引力非常大)</p>,3,post_test,nma-6.png
"""","""","""",Edge,120.0.0.0,"""","""","""","""","""","""",html-keyboard-response,66,361412,0.0-6.0-0.9,135,1,2023/12/21 8:34,88e23e57077159ed4f24370af8da4c16,223.104.160.72,"Mozilla/5.0 (Windows NT 10.0; Win64; x64) AppleWebKit/537.36 (KHTML, like Gecko) Chrome/120.0.0.0 Safari/537.36 Edg/120.0.0.0",WebKit,Windows,10,null,"zh-CN,zh;q=0.9,en;q=0.8,en-GB;q=0.7,en-US;q=0.6","""",null,"""","""","""","""","""","""",+,null,"""",""""
"""","""","""",Edge,120.0.0.0,"""","""","""","""","""","""",html-button-response,67,363517,0.0-6.0-1.9,135,1,2023/12/21 8:34,88e23e57077159ed4f24370af8da4c16,223.104.160.72,"Mozilla/5.0 (Windows NT 10.0; Win64; x64) AppleWebKit/537.36 (KHTML, like Gecko) Chrome/120.0.0.0 Safari/537.36 Edg/120.0.0.0",WebKit,Windows,10,null,"zh-CN,zh;q=0.9,en;q=0.8,en-GB;q=0.7,en-US;q=0.6","""",2103,"""","""","""","""","""","""",<img src='lmj-4.jpg'>\n                              <p class='attract'>该异性对您来说吸引力评分是</p>\n                              <p class='tips'>(1代表吸引力非常小，9代表吸引力非常大)</p>,0,pre_test,lmj-4.jpg
"""","""","""",Edge,120.0.0.0,"""","""","""","""","""","""",instructions,68,364677,0.0-6.0-2.9,135,1,2023/12/21 8:34,88e23e57077159ed4f24370af8da4c16,223.104.160.72,"Mozilla/5.0 (Windows NT 10.0; Win64; x64) AppleWebKit/537.36 (KHTML, like Gecko) Chrome/120.0.0.0 Safari/537.36 Edg/120.0.0.0",WebKit,Windows,10,null,"zh-CN,zh;q=0.9,en;q=0.8,en-GB;q=0.7,en-US;q=0.6","""",1159,"""","""","""","""","""","[{""page_index"":0,""viewing_time"":1159}]","""","""",素不相识,""""
"""","""","""",Edge,120.0.0.0,"""","""","""","""","""","""",html-button-response,69,365757,0.0-6.0-3.9,135,1,2023/12/21 8:34,88e23e57077159ed4f24370af8da4c16,223.104.160.72,"Mozilla/5.0 (Windows NT 10.0; Win64; x64) AppleWebKit/537.36 (KHTML, like Gecko) Chrome/120.0.0.0 Safari/537.36 Edg/120.0.0.0",WebKit,Windows,10,null,"zh-CN,zh;q=0.9,en;q=0.8,en-GB;q=0.7,en-US;q=0.6","""",1079,"""","""","""","""","""","""",<p class='attract'>以下有两个圆圈，一个代表你自己，一个代表刚刚你想象中的她，重叠部分代表你们的亲密程度，\n                              重叠部分越大代表你们之间越亲密，请选择以下哪个可以代表你们之间的亲密度</p>\n                              <img src='distance.png' width=85%>,0,distance,""""
"""","""","""",Edge,120.0.0.0,"""","""","""","""","""","""",instructions,70,367637,0.0-6.0-4.9,135,1,2023/12/21 8:34,88e23e57077159ed4f24370af8da4c16,223.104.160.72,"Mozilla/5.0 (Windows NT 10.0; Win64; x64) AppleWebKit/537.36 (KHTML, like Gecko) Chrome/120.0.0.0 Safari/537.36 Edg/120.0.0.0",WebKit,Windows,10,null,"zh-CN,zh;q=0.9,en;q=0.8,en-GB;q=0.7,en-US;q=0.6","""",1879,"""","""","""","""","""","[{""page_index"":0,""viewing_time"":1879}]","""","""","""",""""
"""","""","""",Edge,120.0.0.0,"""","""","""","""","""","""",html-button-response,71,368397,0.0-6.0-5.9,135,1,2023/12/21 8:34,88e23e57077159ed4f24370af8da4c16,223.104.160.72,"Mozilla/5.0 (Windows NT 10.0; Win64; x64) AppleWebKit/537.36 (KHTML, like Gecko) Chrome/120.0.0.0 Safari/537.36 Edg/120.0.0.0",WebKit,Windows,10,null,"zh-CN,zh;q=0.9,en;q=0.8,en-GB;q=0.7,en-US;q=0.6","""",758,"""","""","""","""","""","""",<img src='lmj-4.jpg'>\n                          <p class='attract'>该异性对您来说吸引力评分是</p>\n                          <p class='tips'>(1代表吸引力非常小，9代表吸引力非常大)</p>,0,post_test,lmj-4.jpg
"""","""","""",Edge,120.0.0.0,"""","""","""","""","""","""",html-keyboard-response,72,368899,0.0-6.0-0.10,135,1,2023/12/21 8:34,88e23e57077159ed4f24370af8da4c16,223.104.160.72,"Mozilla/5.0 (Windows NT 10.0; Win64; x64) AppleWebKit/537.36 (KHTML, like Gecko) Chrome/120.0.0.0 Safari/537.36 Edg/120.0.0.0",WebKit,Windows,10,null,"zh-CN,zh;q=0.9,en;q=0.8,en-GB;q=0.7,en-US;q=0.6","""",null,"""","""","""","""","""","""",+,null,"""",""""
"""","""","""",Edge,120.0.0.0,"""","""","""","""","""","""",html-button-response,73,374421,0.0-6.0-1.10,135,1,2023/12/21 8:34,88e23e57077159ed4f24370af8da4c16,223.104.160.72,"Mozilla/5.0 (Windows NT 10.0; Win64; x64) AppleWebKit/537.36 (KHTML, like Gecko) Chrome/120.0.0.0 Safari/537.36 Edg/120.0.0.0",WebKit,Windows,10,null,"zh-CN,zh;q=0.9,en;q=0.8,en-GB;q=0.7,en-US;q=0.6","""",5520,"""","""","""","""","""","""",<img src='pma-9.png'>\n                              <p class='attract'>该异性对您来说吸引力评分是</p>\n                              <p class='tips'>(1代表吸引力非常小，9代表吸引力非常大)</p>,5,pre_test,pma-9.png
"""","""","""",Edge,120.0.0.0,"""","""","""","""","""","""",instructions,74,375805,0.0-6.0-2.10,135,1,2023/12/21 8:34,88e23e57077159ed4f24370af8da4c16,223.104.160.72,"Mozilla/5.0 (Windows NT 10.0; Win64; x64) AppleWebKit/537.36 (KHTML, like Gecko) Chrome/120.0.0.0 Safari/537.36 Edg/120.0.0.0",WebKit,Windows,10,null,"zh-CN,zh;q=0.9,en;q=0.8,en-GB;q=0.7,en-US;q=0.6","""",1382,"""","""","""","""","""","[{""page_index"":0,""viewing_time"":1382}]","""","""",闺蜜,""""
"""","""","""",Edge,120.0.0.0,"""","""","""","""","""","""",html-button-response,75,383749,0.0-6.0-3.10,135,1,2023/12/21 8:34,88e23e57077159ed4f24370af8da4c16,223.104.160.72,"Mozilla/5.0 (Windows NT 10.0; Win64; x64) AppleWebKit/537.36 (KHTML, like Gecko) Chrome/120.0.0.0 Safari/537.36 Edg/120.0.0.0",WebKit,Windows,10,null,"zh-CN,zh;q=0.9,en;q=0.8,en-GB;q=0.7,en-US;q=0.6","""",7943,"""","""","""","""","""","""",<p class='attract'>以下有两个圆圈，一个代表你自己，一个代表刚刚你想象中的她，重叠部分代表你们的亲密程度，\n                              重叠部分越大代表你们之间越亲密，请选择以下哪个可以代表你们之间的亲密度</p>\n                              <img src='distance.png' width=85%>,3,distance,""""
"""","""","""",Edge,120.0.0.0,"""","""","""","""","""","""",instructions,76,385149,0.0-6.0-4.10,135,1,2023/12/21 8:34,88e23e57077159ed4f24370af8da4c16,223.104.160.72,"Mozilla/5.0 (Windows NT 10.0; Win64; x64) AppleWebKit/537.36 (KHTML, like Gecko) Chrome/120.0.0.0 Safari/537.36 Edg/120.0.0.0",WebKit,Windows,10,null,"zh-CN,zh;q=0.9,en;q=0.8,en-GB;q=0.7,en-US;q=0.6","""",1398,"""","""","""","""","""","[{""page_index"":0,""viewing_time"":1398}]","""","""","""",""""
"""","""","""",Edge,120.0.0.0,"""","""","""","""","""","""",html-button-response,77,388573,0.0-6.0-5.10,135,1,2023/12/21 8:34,88e23e57077159ed4f24370af8da4c16,223.104.160.72,"Mozilla/5.0 (Windows NT 10.0; Win64; x64) AppleWebKit/537.36 (KHTML, like Gecko) Chrome/120.0.0.0 Safari/537.36 Edg/120.0.0.0",WebKit,Windows,10,null,"zh-CN,zh;q=0.9,en;q=0.8,en-GB;q=0.7,en-US;q=0.6","""",3422,"""","""","""","""","""","""",<img src='pma-9.png'>\n                          <p class='attract'>该异性对您来说吸引力评分是</p>\n                          <p class='tips'>(1代表吸引力非常小，9代表吸引力非常大)</p>,6,post_test,pma-9.png
"""","""","""",Edge,120.0.0.0,"""","""","""","""","""","""",html-keyboard-response,78,389075,0.0-6.0-0.11,135,1,2023/12/21 8:34,88e23e57077159ed4f24370af8da4c16,223.104.160.72,"Mozilla/5.0 (Windows NT 10.0; Win64; x64) AppleWebKit/537.36 (KHTML, like Gecko) Chrome/120.0.0.0 Safari/537.36 Edg/120.0.0.0",WebKit,Windows,10,null,"zh-CN,zh;q=0.9,en;q=0.8,en-GB;q=0.7,en-US;q=0.6","""",null,"""","""","""","""","""","""",+,null,"""",""""
"""","""","""",Edge,120.0.0.0,"""","""","""","""","""","""",html-button-response,79,393165,0.0-6.0-1.11,135,1,2023/12/21 8:34,88e23e57077159ed4f24370af8da4c16,223.104.160.72,"Mozilla/5.0 (Windows NT 10.0; Win64; x64) AppleWebKit/537.36 (KHTML, like Gecko) Chrome/120.0.0.0 Safari/537.36 Edg/120.0.0.0",WebKit,Windows,10,null,"zh-CN,zh;q=0.9,en;q=0.8,en-GB;q=0.7,en-US;q=0.6","""",4088,"""","""","""","""","""","""",<img src='pmj-12.png'>\n                              <p class='attract'>该异性对您来说吸引力评分是</p>\n                              <p class='tips'>(1代表吸引力非常小，9代表吸引力非常大)</p>,4,pre_test,pmj-12.png
"""","""","""",Edge,120.0.0.0,"""","""","""","""","""","""",instructions,80,394757,0.0-6.0-2.11,135,1,2023/12/21 8:34,88e23e57077159ed4f24370af8da4c16,223.104.160.72,"Mozilla/5.0 (Windows NT 10.0; Win64; x64) AppleWebKit/537.36 (KHTML, like Gecko) Chrome/120.0.0.0 Safari/537.36 Edg/120.0.0.0",WebKit,Windows,10,null,"zh-CN,zh;q=0.9,en;q=0.8,en-GB;q=0.7,en-US;q=0.6","""",1591,"""","""","""","""","""","[{""page_index"":0,""viewing_time"":1590}]","""","""",喜欢的明星/小说人物,""""
"""","""","""",Edge,120.0.0.0,"""","""","""","""","""","""",html-button-response,81,398565,0.0-6.0-3.11,135,1,2023/12/21 8:34,88e23e57077159ed4f24370af8da4c16,223.104.160.72,"Mozilla/5.0 (Windows NT 10.0; Win64; x64) AppleWebKit/537.36 (KHTML, like Gecko) Chrome/120.0.0.0 Safari/537.36 Edg/120.0.0.0",WebKit,Windows,10,null,"zh-CN,zh;q=0.9,en;q=0.8,en-GB;q=0.7,en-US;q=0.6","""",3806,"""","""","""","""","""","""",<p class='attract'>以下有两个圆圈，一个代表你自己，一个代表刚刚你想象中的她，重叠部分代表你们的亲密程度，\n                              重叠部分越大代表你们之间越亲密，请选择以下哪个可以代表你们之间的亲密度</p>\n                              <img src='distance.png' width=85%>,2,distance,""""
"""","""","""",Edge,120.0.0.0,"""","""","""","""","""","""",instructions,82,400093,0.0-6.0-4.11,135,1,2023/12/21 8:34,88e23e57077159ed4f24370af8da4c16,223.104.160.72,"Mozilla/5.0 (Windows NT 10.0; Win64; x64) AppleWebKit/537.36 (KHTML, like Gecko) Chrome/120.0.0.0 Safari/537.36 Edg/120.0.0.0",WebKit,Windows,10,null,"zh-CN,zh;q=0.9,en;q=0.8,en-GB;q=0.7,en-US;q=0.6","""",1527,"""","""","""","""","""","[{""page_index"":0,""viewing_time"":1527}]","""","""","""",""""
"""","""","""",Edge,120.0.0.0,"""","""","""","""","""","""",html-button-response,83,403437,0.0-6.0-5.11,135,1,2023/12/21 8:34,88e23e57077159ed4f24370af8da4c16,223.104.160.72,"Mozilla/5.0 (Windows NT 10.0; Win64; x64) AppleWebKit/537.36 (KHTML, like Gecko) Chrome/120.0.0.0 Safari/537.36 Edg/120.0.0.0",WebKit,Windows,10,null,"zh-CN,zh;q=0.9,en;q=0.8,en-GB;q=0.7,en-US;q=0.6","""",3342,"""","""","""","""","""","""",<img src='pmj-12.png'>\n                          <p class='attract'>该异性对您来说吸引力评分是</p>\n                          <p class='tips'>(1代表吸引力非常小，9代表吸引力非常大)</p>,2,post_test,pmj-12.png
"""","""","""",Edge,120.0.0.0,"""","""","""","""","""","""",html-keyboard-response,84,403948,0.0-6.0-0.12,135,1,2023/12/21 8:34,88e23e57077159ed4f24370af8da4c16,223.104.160.72,"Mozilla/5.0 (Windows NT 10.0; Win64; x64) AppleWebKit/537.36 (KHTML, like Gecko) Chrome/120.0.0.0 Safari/537.36 Edg/120.0.0.0",WebKit,Windows,10,null,"zh-CN,zh;q=0.9,en;q=0.8,en-GB;q=0.7,en-US;q=0.6","""",null,"""","""","""","""","""","""",+,null,"""",""""
"""","""","""",Edge,120.0.0.0,"""","""","""","""","""","""",html-button-response,85,406485,0.0-6.0-1.12,135,1,2023/12/21 8:34,88e23e57077159ed4f24370af8da4c16,223.104.160.72,"Mozilla/5.0 (Windows NT 10.0; Win64; x64) AppleWebKit/537.36 (KHTML, like Gecko) Chrome/120.0.0.0 Safari/537.36 Edg/120.0.0.0",WebKit,Windows,10,null,"zh-CN,zh;q=0.9,en;q=0.8,en-GB;q=0.7,en-US;q=0.6","""",2536,"""","""","""","""","""","""",<img src='nmj-8.jpg'>\n                              <p class='attract'>该异性对您来说吸引力评分是</p>\n                              <p class='tips'>(1代表吸引力非常小，9代表吸引力非常大)</p>,0,pre_test,nmj-8.jpg
"""","""","""",Edge,120.0.0.0,"""","""","""","""","""","""",instructions,86,408125,0.0-6.0-2.12,135,1,2023/12/21 8:34,88e23e57077159ed4f24370af8da4c16,223.104.160.72,"Mozilla/5.0 (Windows NT 10.0; Win64; x64) AppleWebKit/537.36 (KHTML, like Gecko) Chrome/120.0.0.0 Safari/537.36 Edg/120.0.0.0",WebKit,Windows,10,null,"zh-CN,zh;q=0.9,en;q=0.8,en-GB;q=0.7,en-US;q=0.6","""",1638,"""","""","""","""","""","[{""page_index"":0,""viewing_time"":1638}]","""","""",喜欢的明星/小说人物,""""
"""","""","""",Edge,120.0.0.0,"""","""","""","""","""","""",html-button-response,87,413125,0.0-6.0-3.12,135,1,2023/12/21 8:34,88e23e57077159ed4f24370af8da4c16,223.104.160.72,"Mozilla/5.0 (Windows NT 10.0; Win64; x64) AppleWebKit/537.36 (KHTML, like Gecko) Chrome/120.0.0.0 Safari/537.36 Edg/120.0.0.0",WebKit,Windows,10,null,"zh-CN,zh;q=0.9,en;q=0.8,en-GB;q=0.7,en-US;q=0.6","""",4998,"""","""","""","""","""","""",<p class='attract'>以下有两个圆圈，一个代表你自己，一个代表刚刚你想象中的她，重叠部分代表你们的亲密程度，\n                              重叠部分越大代表你们之间越亲密，请选择以下哪个可以代表你们之间的亲密度</p>\n                              <img src='distance.png' width=85%>,1,distance,""""
"""","""","""",Edge,120.0.0.0,"""","""","""","""","""","""",instructions,88,415461,0.0-6.0-4.12,135,1,2023/12/21 8:34,88e23e57077159ed4f24370af8da4c16,223.104.160.72,"Mozilla/5.0 (Windows NT 10.0; Win64; x64) AppleWebKit/537.36 (KHTML, like Gecko) Chrome/120.0.0.0 Safari/537.36 Edg/120.0.0.0",WebKit,Windows,10,null,"zh-CN,zh;q=0.9,en;q=0.8,en-GB;q=0.7,en-US;q=0.6","""",2334,"""","""","""","""","""","[{""page_index"":0,""viewing_time"":2334}]","""","""","""",""""
"""","""","""",Edge,120.0.0.0,"""","""","""","""","""","""",html-button-response,89,416181,0.0-6.0-5.12,135,1,2023/12/21 8:34,88e23e57077159ed4f24370af8da4c16,223.104.160.72,"Mozilla/5.0 (Windows NT 10.0; Win64; x64) AppleWebKit/537.36 (KHTML, like Gecko) Chrome/120.0.0.0 Safari/537.36 Edg/120.0.0.0",WebKit,Windows,10,null,"zh-CN,zh;q=0.9,en;q=0.8,en-GB;q=0.7,en-US;q=0.6","""",718,"""","""","""","""","""","""",<img src='nmj-8.jpg'>\n                          <p class='attract'>该异性对您来说吸引力评分是</p>\n                          <p class='tips'>(1代表吸引力非常小，9代表吸引力非常大)</p>,0,post_test,nmj-8.jpg
"""","""","""",Edge,120.0.0.0,"""","""","""","""","""","""",html-keyboard-response,90,416684,0.0-6.0-0.13,135,1,2023/12/21 8:34,88e23e57077159ed4f24370af8da4c16,223.104.160.72,"Mozilla/5.0 (Windows NT 10.0; Win64; x64) AppleWebKit/537.36 (KHTML, like Gecko) Chrome/120.0.0.0 Safari/537.36 Edg/120.0.0.0",WebKit,Windows,10,null,"zh-CN,zh;q=0.9,en;q=0.8,en-GB;q=0.7,en-US;q=0.6","""",null,"""","""","""","""","""","""",+,null,"""",""""
"""","""","""",Edge,120.0.0.0,"""","""","""","""","""","""",html-button-response,91,420661,0.0-6.0-1.13,135,1,2023/12/21 8:34,88e23e57077159ed4f24370af8da4c16,223.104.160.72,"Mozilla/5.0 (Windows NT 10.0; Win64; x64) AppleWebKit/537.36 (KHTML, like Gecko) Chrome/120.0.0.0 Safari/537.36 Edg/120.0.0.0",WebKit,Windows,10,null,"zh-CN,zh;q=0.9,en;q=0.8,en-GB;q=0.7,en-US;q=0.6","""",3975,"""","""","""","""","""","""",<img src='pmj-11.png'>\n                              <p class='attract'>该异性对您来说吸引力评分是</p>\n                              <p class='tips'>(1代表吸引力非常小，9代表吸引力非常大)</p>,2,pre_test,pmj-11.png
"""","""","""",Edge,120.0.0.0,"""","""","""","""","""","""",instructions,92,421813,0.0-6.0-2.13,135,1,2023/12/21 8:34,88e23e57077159ed4f24370af8da4c16,223.104.160.72,"Mozilla/5.0 (Windows NT 10.0; Win64; x64) AppleWebKit/537.36 (KHTML, like Gecko) Chrome/120.0.0.0 Safari/537.36 Edg/120.0.0.0",WebKit,Windows,10,null,"zh-CN,zh;q=0.9,en;q=0.8,en-GB;q=0.7,en-US;q=0.6","""",1151,"""","""","""","""","""","[{""page_index"":0,""viewing_time"":1150}]","""","""",闺蜜,""""
"""","""","""",Edge,120.0.0.0,"""","""","""","""","""","""",html-button-response,93,427021,0.0-6.0-3.13,135,1,2023/12/21 8:34,88e23e57077159ed4f24370af8da4c16,223.104.160.72,"Mozilla/5.0 (Windows NT 10.0; Win64; x64) AppleWebKit/537.36 (KHTML, like Gecko) Chrome/120.0.0.0 Safari/537.36 Edg/120.0.0.0",WebKit,Windows,10,null,"zh-CN,zh;q=0.9,en;q=0.8,en-GB;q=0.7,en-US;q=0.6","""",5206,"""","""","""","""","""","""",<p class='attract'>以下有两个圆圈，一个代表你自己，一个代表刚刚你想象中的她，重叠部分代表你们的亲密程度，\n                              重叠部分越大代表你们之间越亲密，请选择以下哪个可以代表你们之间的亲密度</p>\n                              <img src='distance.png' width=85%>,3,distance,""""
"""","""","""",Edge,120.0.0.0,"""","""","""","""","""","""",instructions,94,428925,0.0-6.0-4.13,135,1,2023/12/21 8:34,88e23e57077159ed4f24370af8da4c16,223.104.160.72,"Mozilla/5.0 (Windows NT 10.0; Win64; x64) AppleWebKit/537.36 (KHTML, like Gecko) Chrome/120.0.0.0 Safari/537.36 Edg/120.0.0.0",WebKit,Windows,10,null,"zh-CN,zh;q=0.9,en;q=0.8,en-GB;q=0.7,en-US;q=0.6","""",1903,"""","""","""","""","""","[{""page_index"":0,""viewing_time"":1903}]","""","""","""",""""
"""","""","""",Edge,120.0.0.0,"""","""","""","""","""","""",html-button-response,95,430037,0.0-6.0-5.13,135,1,2023/12/21 8:34,88e23e57077159ed4f24370af8da4c16,223.104.160.72,"Mozilla/5.0 (Windows NT 10.0; Win64; x64) AppleWebKit/537.36 (KHTML, like Gecko) Chrome/120.0.0.0 Safari/537.36 Edg/120.0.0.0",WebKit,Windows,10,null,"zh-CN,zh;q=0.9,en;q=0.8,en-GB;q=0.7,en-US;q=0.6","""",1110,"""","""","""","""","""","""",<img src='pmj-11.png'>\n                          <p class='attract'>该异性对您来说吸引力评分是</p>\n                          <p class='tips'>(1代表吸引力非常小，9代表吸引力非常大)</p>,1,post_test,pmj-11.png
"""","""","""",Edge,120.0.0.0,"""","""","""","""","""","""",html-keyboard-response,96,430541,0.0-6.0-0.14,135,1,2023/12/21 8:34,88e23e57077159ed4f24370af8da4c16,223.104.160.72,"Mozilla/5.0 (Windows NT 10.0; Win64; x64) AppleWebKit/537.36 (KHTML, like Gecko) Chrome/120.0.0.0 Safari/537.36 Edg/120.0.0.0",WebKit,Windows,10,null,"zh-CN,zh;q=0.9,en;q=0.8,en-GB;q=0.7,en-US;q=0.6","""",null,"""","""","""","""","""","""",+,null,"""",""""
"""","""","""",Edge,120.0.0.0,"""","""","""","""","""","""",html-button-response,97,432261,0.0-6.0-1.14,135,1,2023/12/21 8:34,88e23e57077159ed4f24370af8da4c16,223.104.160.72,"Mozilla/5.0 (Windows NT 10.0; Win64; x64) AppleWebKit/537.36 (KHTML, like Gecko) Chrome/120.0.0.0 Safari/537.36 Edg/120.0.0.0",WebKit,Windows,10,null,"zh-CN,zh;q=0.9,en;q=0.8,en-GB;q=0.7,en-US;q=0.6","""",1718,"""","""","""","""","""","""",<img src='lma-1.jpg'>\n                              <p class='attract'>该异性对您来说吸引力评分是</p>\n                              <p class='tips'>(1代表吸引力非常小，9代表吸引力非常大)</p>,0,pre_test,lma-1.jpg
"""","""","""",Edge,120.0.0.0,"""","""","""","""","""","""",instructions,98,433341,0.0-6.0-2.14,135,1,2023/12/21 8:34,88e23e57077159ed4f24370af8da4c16,223.104.160.72,"Mozilla/5.0 (Windows NT 10.0; Win64; x64) AppleWebKit/537.36 (KHTML, like Gecko) Chrome/120.0.0.0 Safari/537.36 Edg/120.0.0.0",WebKit,Windows,10,null,"zh-CN,zh;q=0.9,en;q=0.8,en-GB;q=0.7,en-US;q=0.6","""",1078,"""","""","""","""","""","[{""page_index"":0,""viewing_time"":1078}]","""","""",素不相识,""""
"""","""","""",Edge,120.0.0.0,"""","""","""","""","""","""",html-button-response,99,434349,0.0-6.0-3.14,135,1,2023/12/21 8:34,88e23e57077159ed4f24370af8da4c16,223.104.160.72,"Mozilla/5.0 (Windows NT 10.0; Win64; x64) AppleWebKit/537.36 (KHTML, like Gecko) Chrome/120.0.0.0 Safari/537.36 Edg/120.0.0.0",WebKit,Windows,10,null,"zh-CN,zh;q=0.9,en;q=0.8,en-GB;q=0.7,en-US;q=0.6","""",1006,"""","""","""","""","""","""",<p class='attract'>以下有两个圆圈，一个代表你自己，一个代表刚刚你想象中的她，重叠部分代表你们的亲密程度，\n                              重叠部分越大代表你们之间越亲密，请选择以下哪个可以代表你们之间的亲密度</p>\n                              <img src='distance.png' width=85%>,0,distance,""""
"""","""","""",Edge,120.0.0.0,"""","""","""","""","""","""",instructions,100,435732,0.0-6.0-4.14,135,1,2023/12/21 8:34,88e23e57077159ed4f24370af8da4c16,223.104.160.72,"Mozilla/5.0 (Windows NT 10.0; Win64; x64) AppleWebKit/537.36 (KHTML, like Gecko) Chrome/120.0.0.0 Safari/537.36 Edg/120.0.0.0",WebKit,Windows,10,null,"zh-CN,zh;q=0.9,en;q=0.8,en-GB;q=0.7,en-US;q=0.6","""",1382,"""","""","""","""","""","[{""page_index"":0,""viewing_time"":1382}]","""","""","""",""""
"""","""","""",Edge,120.0.0.0,"""","""","""","""","""","""",html-button-response,101,438469,0.0-6.0-5.14,135,1,2023/12/21 8:34,88e23e57077159ed4f24370af8da4c16,223.104.160.72,"Mozilla/5.0 (Windows NT 10.0; Win64; x64) AppleWebKit/537.36 (KHTML, like Gecko) Chrome/120.0.0.0 Safari/537.36 Edg/120.0.0.0",WebKit,Windows,10,null,"zh-CN,zh;q=0.9,en;q=0.8,en-GB;q=0.7,en-US;q=0.6","""",2734,"""","""","""","""","""","""",<img src='lma-1.jpg'>\n                          <p class='attract'>该异性对您来说吸引力评分是</p>\n                          <p class='tips'>(1代表吸引力非常小，9代表吸引力非常大)</p>,0,post_test,lma-1.jpg
"""","""","""",Edge,120.0.0.0,"""","""","""","""","""","""",html-keyboard-response,102,438973,0.0-6.0-0.15,135,1,2023/12/21 8:34,88e23e57077159ed4f24370af8da4c16,223.104.160.72,"Mozilla/5.0 (Windows NT 10.0; Win64; x64) AppleWebKit/537.36 (KHTML, like Gecko) Chrome/120.0.0.0 Safari/537.36 Edg/120.0.0.0",WebKit,Windows,10,null,"zh-CN,zh;q=0.9,en;q=0.8,en-GB;q=0.7,en-US;q=0.6","""",null,"""","""","""","""","""","""",+,null,"""",""""
"""","""","""",Edge,120.0.0.0,"""","""","""","""","""","""",html-button-response,103,448428,0.0-6.0-1.15,135,1,2023/12/21 8:34,88e23e57077159ed4f24370af8da4c16,223.104.160.72,"Mozilla/5.0 (Windows NT 10.0; Win64; x64) AppleWebKit/537.36 (KHTML, like Gecko) Chrome/120.0.0.0 Safari/537.36 Edg/120.0.0.0",WebKit,Windows,10,null,"zh-CN,zh;q=0.9,en;q=0.8,en-GB;q=0.7,en-US;q=0.6","""",9453,"""","""","""","""","""","""",<img src='nma-6.png'>\n                              <p class='attract'>该异性对您来说吸引力评分是</p>\n                              <p class='tips'>(1代表吸引力非常小，9代表吸引力非常大)</p>,2,pre_test,nma-6.png
"""","""","""",Edge,120.0.0.0,"""","""","""","""","""","""",instructions,104,449660,0.0-6.0-2.15,135,1,2023/12/21 8:34,88e23e57077159ed4f24370af8da4c16,223.104.160.72,"Mozilla/5.0 (Windows NT 10.0; Win64; x64) AppleWebKit/537.36 (KHTML, like Gecko) Chrome/120.0.0.0 Safari/537.36 Edg/120.0.0.0",WebKit,Windows,10,null,"zh-CN,zh;q=0.9,en;q=0.8,en-GB;q=0.7,en-US;q=0.6","""",1230,"""","""","""","""","""","[{""page_index"":0,""viewing_time"":1230}]","""","""",喜欢的明星/小说人物,""""
"""","""","""",Edge,120.0.0.0,"""","""","""","""","""","""",html-button-response,105,453109,0.0-6.0-3.15,135,1,2023/12/21 8:34,88e23e57077159ed4f24370af8da4c16,223.104.160.72,"Mozilla/5.0 (Windows NT 10.0; Win64; x64) AppleWebKit/537.36 (KHTML, like Gecko) Chrome/120.0.0.0 Safari/537.36 Edg/120.0.0.0",WebKit,Windows,10,null,"zh-CN,zh;q=0.9,en;q=0.8,en-GB;q=0.7,en-US;q=0.6","""",3447,"""","""","""","""","""","""",<p class='attract'>以下有两个圆圈，一个代表你自己，一个代表刚刚你想象中的她，重叠部分代表你们的亲密程度，\n                              重叠部分越大代表你们之间越亲密，请选择以下哪个可以代表你们之间的亲密度</p>\n                              <img src='distance.png' width=85%>,1,distance,""""
"""","""","""",Edge,120.0.0.0,"""","""","""","""","""","""",instructions,106,454141,0.0-6.0-4.15,135,1,2023/12/21 8:34,88e23e57077159ed4f24370af8da4c16,223.104.160.72,"Mozilla/5.0 (Windows NT 10.0; Win64; x64) AppleWebKit/537.36 (KHTML, like Gecko) Chrome/120.0.0.0 Safari/537.36 Edg/120.0.0.0",WebKit,Windows,10,null,"zh-CN,zh;q=0.9,en;q=0.8,en-GB;q=0.7,en-US;q=0.6","""",1030,"""","""","""","""","""","[{""page_index"":0,""viewing_time"":1030}]","""","""","""",""""
"""","""","""",Edge,120.0.0.0,"""","""","""","""","""","""",html-button-response,107,455101,0.0-6.0-5.15,135,1,2023/12/21 8:34,88e23e57077159ed4f24370af8da4c16,223.104.160.72,"Mozilla/5.0 (Windows NT 10.0; Win64; x64) AppleWebKit/537.36 (KHTML, like Gecko) Chrome/120.0.0.0 Safari/537.36 Edg/120.0.0.0",WebKit,Windows,10,null,"zh-CN,zh;q=0.9,en;q=0.8,en-GB;q=0.7,en-US;q=0.6","""",958,"""","""","""","""","""","""",<img src='nma-6.png'>\n                          <p class='attract'>该异性对您来说吸引力评分是</p>\n                          <p class='tips'>(1代表吸引力非常小，9代表吸引力非常大)</p>,3,post_test,nma-6.png
"""","""","""",Edge,120.0.0.0,"""","""","""","""","""","""",html-keyboard-response,108,455618,0.0-6.0-0.16,135,1,2023/12/21 8:34,88e23e57077159ed4f24370af8da4c16,223.104.160.72,"Mozilla/5.0 (Windows NT 10.0; Win64; x64) AppleWebKit/537.36 (KHTML, like Gecko) Chrome/120.0.0.0 Safari/537.36 Edg/120.0.0.0",WebKit,Windows,10,null,"zh-CN,zh;q=0.9,en;q=0.8,en-GB;q=0.7,en-US;q=0.6","""",null,"""","""","""","""","""","""",+,null,"""",""""
"""","""","""",Edge,120.0.0.0,"""","""","""","""","""","""",html-button-response,109,461196,0.0-6.0-1.16,135,1,2023/12/21 8:34,88e23e57077159ed4f24370af8da4c16,223.104.160.72,"Mozilla/5.0 (Windows NT 10.0; Win64; x64) AppleWebKit/537.36 (KHTML, like Gecko) Chrome/120.0.0.0 Safari/537.36 Edg/120.0.0.0",WebKit,Windows,10,null,"zh-CN,zh;q=0.9,en;q=0.8,en-GB;q=0.7,en-US;q=0.6","""",5576,"""","""","""","""","""","""",<img src='pmj-11.png'>\n                              <p class='attract'>该异性对您来说吸引力评分是</p>\n                              <p class='tips'>(1代表吸引力非常小，9代表吸引力非常大)</p>,2,pre_test,pmj-11.png
"""","""","""",Edge,120.0.0.0,"""","""","""","""","""","""",instructions,110,462213,0.0-6.0-2.16,135,1,2023/12/21 8:34,88e23e57077159ed4f24370af8da4c16,223.104.160.72,"Mozilla/5.0 (Windows NT 10.0; Win64; x64) AppleWebKit/537.36 (KHTML, like Gecko) Chrome/120.0.0.0 Safari/537.36 Edg/120.0.0.0",WebKit,Windows,10,null,"zh-CN,zh;q=0.9,en;q=0.8,en-GB;q=0.7,en-US;q=0.6","""",1015,"""","""","""","""","""","[{""page_index"":0,""viewing_time"":1015}]","""","""",喜欢的明星/小说人物,""""
"""","""","""",Edge,120.0.0.0,"""","""","""","""","""","""",html-button-response,111,463605,0.0-6.0-3.16,135,1,2023/12/21 8:34,88e23e57077159ed4f24370af8da4c16,223.104.160.72,"Mozilla/5.0 (Windows NT 10.0; Win64; x64) AppleWebKit/537.36 (KHTML, like Gecko) Chrome/120.0.0.0 Safari/537.36 Edg/120.0.0.0",WebKit,Windows,10,null,"zh-CN,zh;q=0.9,en;q=0.8,en-GB;q=0.7,en-US;q=0.6","""",1390,"""","""","""","""","""","""",<p class='attract'>以下有两个圆圈，一个代表你自己，一个代表刚刚你想象中的她，重叠部分代表你们的亲密程度，\n                              重叠部分越大代表你们之间越亲密，请选择以下哪个可以代表你们之间的亲密度</p>\n                              <img src='distance.png' width=85%>,1,distance,""""
"""","""","""",Edge,120.0.0.0,"""","""","""","""","""","""",instructions,112,465164,0.0-6.0-4.16,135,1,2023/12/21 8:34,88e23e57077159ed4f24370af8da4c16,223.104.160.72,"Mozilla/5.0 (Windows NT 10.0; Win64; x64) AppleWebKit/537.36 (KHTML, like Gecko) Chrome/120.0.0.0 Safari/537.36 Edg/120.0.0.0",WebKit,Windows,10,null,"zh-CN,zh;q=0.9,en;q=0.8,en-GB;q=0.7,en-US;q=0.6","""",1558,"""","""","""","""","""","[{""page_index"":0,""viewing_time"":1558}]","""","""","""",""""
"""","""","""",Edge,120.0.0.0,"""","""","""","""","""","""",html-button-response,113,468829,0.0-6.0-5.16,135,1,2023/12/21 8:34,88e23e57077159ed4f24370af8da4c16,223.104.160.72,"Mozilla/5.0 (Windows NT 10.0; Win64; x64) AppleWebKit/537.36 (KHTML, like Gecko) Chrome/120.0.0.0 Safari/537.36 Edg/120.0.0.0",WebKit,Windows,10,null,"zh-CN,zh;q=0.9,en;q=0.8,en-GB;q=0.7,en-US;q=0.6","""",3662,"""","""","""","""","""","""",<img src='pmj-11.png'>\n                          <p class='attract'>该异性对您来说吸引力评分是</p>\n                          <p class='tips'>(1代表吸引力非常小，9代表吸引力非常大)</p>,1,post_test,pmj-11.png
"""","""","""",Edge,120.0.0.0,"""","""","""","""","""","""",html-keyboard-response,114,469332,0.0-6.0-0.17,135,1,2023/12/21 8:34,88e23e57077159ed4f24370af8da4c16,223.104.160.72,"Mozilla/5.0 (Windows NT 10.0; Win64; x64) AppleWebKit/537.36 (KHTML, like Gecko) Chrome/120.0.0.0 Safari/537.36 Edg/120.0.0.0",WebKit,Windows,10,null,"zh-CN,zh;q=0.9,en;q=0.8,en-GB;q=0.7,en-US;q=0.6","""",null,"""","""","""","""","""","""",+,null,"""",""""
"""","""","""",Edge,120.0.0.0,"""","""","""","""","""","""",html-button-response,115,470670,0.0-6.0-1.17,135,1,2023/12/21 8:34,88e23e57077159ed4f24370af8da4c16,223.104.160.72,"Mozilla/5.0 (Windows NT 10.0; Win64; x64) AppleWebKit/537.36 (KHTML, like Gecko) Chrome/120.0.0.0 Safari/537.36 Edg/120.0.0.0",WebKit,Windows,10,null,"zh-CN,zh;q=0.9,en;q=0.8,en-GB;q=0.7,en-US;q=0.6","""",1335,"""","""","""","""","""","""",<img src='lmj-4.jpg'>\n                              <p class='attract'>该异性对您来说吸引力评分是</p>\n                              <p class='tips'>(1代表吸引力非常小，9代表吸引力非常大)</p>,0,pre_test,lmj-4.jpg
"""","""","""",Edge,120.0.0.0,"""","""","""","""","""","""",instructions,116,471772,0.0-6.0-2.17,135,1,2023/12/21 8:34,88e23e57077159ed4f24370af8da4c16,223.104.160.72,"Mozilla/5.0 (Windows NT 10.0; Win64; x64) AppleWebKit/537.36 (KHTML, like Gecko) Chrome/120.0.0.0 Safari/537.36 Edg/120.0.0.0",WebKit,Windows,10,null,"zh-CN,zh;q=0.9,en;q=0.8,en-GB;q=0.7,en-US;q=0.6","""",1100,"""","""","""","""","""","[{""page_index"":0,""viewing_time"":1100}]","""","""",闺蜜,""""
"""","""","""",Edge,120.0.0.0,"""","""","""","""","""","""",html-button-response,117,472973,0.0-6.0-3.17,135,1,2023/12/21 8:34,88e23e57077159ed4f24370af8da4c16,223.104.160.72,"Mozilla/5.0 (Windows NT 10.0; Win64; x64) AppleWebKit/537.36 (KHTML, like Gecko) Chrome/120.0.0.0 Safari/537.36 Edg/120.0.0.0",WebKit,Windows,10,null,"zh-CN,zh;q=0.9,en;q=0.8,en-GB;q=0.7,en-US;q=0.6","""",1198,"""","""","""","""","""","""",<p class='attract'>以下有两个圆圈，一个代表你自己，一个代表刚刚你想象中的她，重叠部分代表你们的亲密程度，\n                              重叠部分越大代表你们之间越亲密，请选择以下哪个可以代表你们之间的亲密度</p>\n                              <img src='distance.png' width=85%>,3,distance,""""
"""","""","""",Edge,120.0.0.0,"""","""","""","""","""","""",instructions,118,474364,0.0-6.0-4.17,135,1,2023/12/21 8:34,88e23e57077159ed4f24370af8da4c16,223.104.160.72,"Mozilla/5.0 (Windows NT 10.0; Win64; x64) AppleWebKit/537.36 (KHTML, like Gecko) Chrome/120.0.0.0 Safari/537.36 Edg/120.0.0.0",WebKit,Windows,10,null,"zh-CN,zh;q=0.9,en;q=0.8,en-GB;q=0.7,en-US;q=0.6","""",1387,"""","""","""","""","""","[{""page_index"":0,""viewing_time"":1386}]","""","""","""",""""
"""","""","""",Edge,120.0.0.0,"""","""","""","""","""","""",html-button-response,119,475405,0.0-6.0-5.17,135,1,2023/12/21 8:34,88e23e57077159ed4f24370af8da4c16,223.104.160.72,"Mozilla/5.0 (Windows NT 10.0; Win64; x64) AppleWebKit/537.36 (KHTML, like Gecko) Chrome/120.0.0.0 Safari/537.36 Edg/120.0.0.0",WebKit,Windows,10,null,"zh-CN,zh;q=0.9,en;q=0.8,en-GB;q=0.7,en-US;q=0.6","""",1038,"""","""","""","""","""","""",<img src='lmj-4.jpg'>\n                          <p class='attract'>该异性对您来说吸引力评分是</p>\n                          <p class='tips'>(1代表吸引力非常小，9代表吸引力非常大)</p>,1,post_test,lmj-4.jpg
"""","""","""",Edge,120.0.0.0,"""","""","""","""","""","""",html-keyboard-response,120,475908,0.0-6.0-0.18,135,1,2023/12/21 8:34,88e23e57077159ed4f24370af8da4c16,223.104.160.72,"Mozilla/5.0 (Windows NT 10.0; Win64; x64) AppleWebKit/537.36 (KHTML, like Gecko) Chrome/120.0.0.0 Safari/537.36 Edg/120.0.0.0",WebKit,Windows,10,null,"zh-CN,zh;q=0.9,en;q=0.8,en-GB;q=0.7,en-US;q=0.6","""",null,"""","""","""","""","""","""",+,null,"""",""""
"""","""","""",Edge,120.0.0.0,"""","""","""","""","""","""",html-button-response,121,485301,0.0-6.0-1.18,135,1,2023/12/21 8:34,88e23e57077159ed4f24370af8da4c16,223.104.160.72,"Mozilla/5.0 (Windows NT 10.0; Win64; x64) AppleWebKit/537.36 (KHTML, like Gecko) Chrome/120.0.0.0 Safari/537.36 Edg/120.0.0.0",WebKit,Windows,10,null,"zh-CN,zh;q=0.9,en;q=0.8,en-GB;q=0.7,en-US;q=0.6","""",9391,"""","""","""","""","""","""",<img src='pma-10.png'>\n                              <p class='attract'>该异性对您来说吸引力评分是</p>\n                              <p class='tips'>(1代表吸引力非常小，9代表吸引力非常大)</p>,2,pre_test,pma-10.png
"""","""","""",Edge,120.0.0.0,"""","""","""","""","""","""",instructions,122,486461,0.0-6.0-2.18,135,1,2023/12/21 8:34,88e23e57077159ed4f24370af8da4c16,223.104.160.72,"Mozilla/5.0 (Windows NT 10.0; Win64; x64) AppleWebKit/537.36 (KHTML, like Gecko) Chrome/120.0.0.0 Safari/537.36 Edg/120.0.0.0",WebKit,Windows,10,null,"zh-CN,zh;q=0.9,en;q=0.8,en-GB;q=0.7,en-US;q=0.6","""",1158,"""","""","""","""","""","[{""page_index"":0,""viewing_time"":1158}]","""","""",素不相识,""""
"""","""","""",Edge,120.0.0.0,"""","""","""","""","""","""",html-button-response,123,487780,0.0-6.0-3.18,135,1,2023/12/21 8:34,88e23e57077159ed4f24370af8da4c16,223.104.160.72,"Mozilla/5.0 (Windows NT 10.0; Win64; x64) AppleWebKit/537.36 (KHTML, like Gecko) Chrome/120.0.0.0 Safari/537.36 Edg/120.0.0.0",WebKit,Windows,10,null,"zh-CN,zh;q=0.9,en;q=0.8,en-GB;q=0.7,en-US;q=0.6","""",1317,"""","""","""","""","""","""",<p class='attract'>以下有两个圆圈，一个代表你自己，一个代表刚刚你想象中的她，重叠部分代表你们的亲密程度，\n                              重叠部分越大代表你们之间越亲密，请选择以下哪个可以代表你们之间的亲密度</p>\n                              <img src='distance.png' width=85%>,0,distance,""""
"""","""","""",Edge,120.0.0.0,"""","""","""","""","""","""",instructions,124,489173,0.0-6.0-4.18,135,1,2023/12/21 8:34,88e23e57077159ed4f24370af8da4c16,223.104.160.72,"Mozilla/5.0 (Windows NT 10.0; Win64; x64) AppleWebKit/537.36 (KHTML, like Gecko) Chrome/120.0.0.0 Safari/537.36 Edg/120.0.0.0",WebKit,Windows,10,null,"zh-CN,zh;q=0.9,en;q=0.8,en-GB;q=0.7,en-US;q=0.6","""",1390,"""","""","""","""","""","[{""page_index"":0,""viewing_time"":1390}]","""","""","""",""""
"""","""","""",Edge,120.0.0.0,"""","""","""","""","""","""",html-button-response,125,491196,0.0-6.0-5.18,135,1,2023/12/21 8:34,88e23e57077159ed4f24370af8da4c16,223.104.160.72,"Mozilla/5.0 (Windows NT 10.0; Win64; x64) AppleWebKit/537.36 (KHTML, like Gecko) Chrome/120.0.0.0 Safari/537.36 Edg/120.0.0.0",WebKit,Windows,10,null,"zh-CN,zh;q=0.9,en;q=0.8,en-GB;q=0.7,en-US;q=0.6","""",2021,"""","""","""","""","""","""",<img src='pma-10.png'>\n                          <p class='attract'>该异性对您来说吸引力评分是</p>\n                          <p class='tips'>(1代表吸引力非常小，9代表吸引力非常大)</p>,3,post_test,pma-10.png
"""","""","""",Edge,120.0.0.0,"""","""","""","""","""","""",html-keyboard-response,126,491701,0.0-6.0-0.19,135,1,2023/12/21 8:34,88e23e57077159ed4f24370af8da4c16,223.104.160.72,"Mozilla/5.0 (Windows NT 10.0; Win64; x64) AppleWebKit/537.36 (KHTML, like Gecko) Chrome/120.0.0.0 Safari/537.36 Edg/120.0.0.0",WebKit,Windows,10,null,"zh-CN,zh;q=0.9,en;q=0.8,en-GB;q=0.7,en-US;q=0.6","""",null,"""","""","""","""","""","""",+,null,"""",""""
"""","""","""",Edge,120.0.0.0,"""","""","""","""","""","""",html-button-response,127,494468,0.0-6.0-1.19,135,1,2023/12/21 8:34,88e23e57077159ed4f24370af8da4c16,223.104.160.72,"Mozilla/5.0 (Windows NT 10.0; Win64; x64) AppleWebKit/537.36 (KHTML, like Gecko) Chrome/120.0.0.0 Safari/537.36 Edg/120.0.0.0",WebKit,Windows,10,null,"zh-CN,zh;q=0.9,en;q=0.8,en-GB;q=0.7,en-US;q=0.6","""",2765,"""","""","""","""","""","""",<img src='nma-5.jpg'>\n                              <p class='attract'>该异性对您来说吸引力评分是</p>\n                              <p class='tips'>(1代表吸引力非常小，9代表吸引力非常大)</p>,1,pre_test,nma-5.jpg
"""","""","""",Edge,120.0.0.0,"""","""","""","""","""","""",instructions,128,495645,0.0-6.0-2.19,135,1,2023/12/21 8:34,88e23e57077159ed4f24370af8da4c16,223.104.160.72,"Mozilla/5.0 (Windows NT 10.0; Win64; x64) AppleWebKit/537.36 (KHTML, like Gecko) Chrome/120.0.0.0 Safari/537.36 Edg/120.0.0.0",WebKit,Windows,10,null,"zh-CN,zh;q=0.9,en;q=0.8,en-GB;q=0.7,en-US;q=0.6","""",1174,"""","""","""","""","""","[{""page_index"":0,""viewing_time"":1174}]","""","""",喜欢的明星/小说人物,""""
"""","""","""",Edge,120.0.0.0,"""","""","""","""","""","""",html-button-response,129,499916,0.0-6.0-3.19,135,1,2023/12/21 8:34,88e23e57077159ed4f24370af8da4c16,223.104.160.72,"Mozilla/5.0 (Windows NT 10.0; Win64; x64) AppleWebKit/537.36 (KHTML, like Gecko) Chrome/120.0.0.0 Safari/537.36 Edg/120.0.0.0",WebKit,Windows,10,null,"zh-CN,zh;q=0.9,en;q=0.8,en-GB;q=0.7,en-US;q=0.6","""",4269,"""","""","""","""","""","""",<p class='attract'>以下有两个圆圈，一个代表你自己，一个代表刚刚你想象中的她，重叠部分代表你们的亲密程度，\n                              重叠部分越大代表你们之间越亲密，请选择以下哪个可以代表你们之间的亲密度</p>\n                              <img src='distance.png' width=85%>,1,distance,""""
"""","""","""",Edge,120.0.0.0,"""","""","""","""","""","""",instructions,130,501205,0.0-6.0-4.19,135,1,2023/12/21 8:34,88e23e57077159ed4f24370af8da4c16,223.104.160.72,"Mozilla/5.0 (Windows NT 10.0; Win64; x64) AppleWebKit/537.36 (KHTML, like Gecko) Chrome/120.0.0.0 Safari/537.36 Edg/120.0.0.0",WebKit,Windows,10,null,"zh-CN,zh;q=0.9,en;q=0.8,en-GB;q=0.7,en-US;q=0.6","""",1286,"""","""","""","""","""","[{""page_index"":0,""viewing_time"":1286}]","""","""","""",""""
"""","""","""",Edge,120.0.0.0,"""","""","""","""","""","""",html-button-response,131,502196,0.0-6.0-5.19,135,1,2023/12/21 8:34,88e23e57077159ed4f24370af8da4c16,223.104.160.72,"Mozilla/5.0 (Windows NT 10.0; Win64; x64) AppleWebKit/537.36 (KHTML, like Gecko) Chrome/120.0.0.0 Safari/537.36 Edg/120.0.0.0",WebKit,Windows,10,null,"zh-CN,zh;q=0.9,en;q=0.8,en-GB;q=0.7,en-US;q=0.6","""",989,"""","""","""","""","""","""",<img src='nma-5.jpg'>\n                          <p class='attract'>该异性对您来说吸引力评分是</p>\n                          <p class='tips'>(1代表吸引力非常小，9代表吸引力非常大)</p>,3,post_test,nma-5.jpg
"""","""","""",Edge,120.0.0.0,"""","""","""","""","""","""",html-keyboard-response,132,502707,0.0-6.0-0.20,135,1,2023/12/21 8:34,88e23e57077159ed4f24370af8da4c16,223.104.160.72,"Mozilla/5.0 (Windows NT 10.0; Win64; x64) AppleWebKit/537.36 (KHTML, like Gecko) Chrome/120.0.0.0 Safari/537.36 Edg/120.0.0.0",WebKit,Windows,10,null,"zh-CN,zh;q=0.9,en;q=0.8,en-GB;q=0.7,en-US;q=0.6","""",null,"""","""","""","""","""","""",+,null,"""",""""
"""","""","""",Edge,120.0.0.0,"""","""","""","""","""","""",html-button-response,133,505189,0.0-6.0-1.20,135,1,2023/12/21 8:34,88e23e57077159ed4f24370af8da4c16,223.104.160.72,"Mozilla/5.0 (Windows NT 10.0; Win64; x64) AppleWebKit/537.36 (KHTML, like Gecko) Chrome/120.0.0.0 Safari/537.36 Edg/120.0.0.0",WebKit,Windows,10,null,"zh-CN,zh;q=0.9,en;q=0.8,en-GB;q=0.7,en-US;q=0.6","""",2479,"""","""","""","""","""","""",<img src='lmj-4.jpg'>\n                              <p class='attract'>该异性对您来说吸引力评分是</p>\n                              <p class='tips'>(1代表吸引力非常小，9代表吸引力非常大)</p>,0,pre_test,lmj-4.jpg
"""","""","""",Edge,120.0.0.0,"""","""","""","""","""","""",instructions,134,506476,0.0-6.0-2.20,135,1,2023/12/21 8:34,88e23e57077159ed4f24370af8da4c16,223.104.160.72,"Mozilla/5.0 (Windows NT 10.0; Win64; x64) AppleWebKit/537.36 (KHTML, like Gecko) Chrome/120.0.0.0 Safari/537.36 Edg/120.0.0.0",WebKit,Windows,10,null,"zh-CN,zh;q=0.9,en;q=0.8,en-GB;q=0.7,en-US;q=0.6","""",1285,"""","""","""","""","""","[{""page_index"":0,""viewing_time"":1285}]","""","""",喜欢的明星/小说人物,""""
"""","""","""",Edge,120.0.0.0,"""","""","""","""","""","""",html-button-response,135,507661,0.0-6.0-3.20,135,1,2023/12/21 8:34,88e23e57077159ed4f24370af8da4c16,223.104.160.72,"Mozilla/5.0 (Windows NT 10.0; Win64; x64) AppleWebKit/537.36 (KHTML, like Gecko) Chrome/120.0.0.0 Safari/537.36 Edg/120.0.0.0",WebKit,Windows,10,null,"zh-CN,zh;q=0.9,en;q=0.8,en-GB;q=0.7,en-US;q=0.6","""",1182,"""","""","""","""","""","""",<p class='attract'>以下有两个圆圈，一个代表你自己，一个代表刚刚你想象中的她，重叠部分代表你们的亲密程度，\n                              重叠部分越大代表你们之间越亲密，请选择以下哪个可以代表你们之间的亲密度</p>\n                              <img src='distance.png' width=85%>,1,distance,""""
"""","""","""",Edge,120.0.0.0,"""","""","""","""","""","""",instructions,136,509036,0.0-6.0-4.20,135,1,2023/12/21 8:34,88e23e57077159ed4f24370af8da4c16,223.104.160.72,"Mozilla/5.0 (Windows NT 10.0; Win64; x64) AppleWebKit/537.36 (KHTML, like Gecko) Chrome/120.0.0.0 Safari/537.36 Edg/120.0.0.0",WebKit,Windows,10,null,"zh-CN,zh;q=0.9,en;q=0.8,en-GB;q=0.7,en-US;q=0.6","""",1373,"""","""","""","""","""","[{""page_index"":0,""viewing_time"":1373}]","""","""","""",""""
"""","""","""",Edge,120.0.0.0,"""","""","""","""","""","""",html-button-response,137,512133,0.0-6.0-5.20,135,1,2023/12/21 8:34,88e23e57077159ed4f24370af8da4c16,223.104.160.72,"Mozilla/5.0 (Windows NT 10.0; Win64; x64) AppleWebKit/537.36 (KHTML, like Gecko) Chrome/120.0.0.0 Safari/537.36 Edg/120.0.0.0",WebKit,Windows,10,null,"zh-CN,zh;q=0.9,en;q=0.8,en-GB;q=0.7,en-US;q=0.6","""",3094,"""","""","""","""","""","""",<img src='lmj-4.jpg'>\n                          <p class='attract'>该异性对您来说吸引力评分是</p>\n                          <p class='tips'>(1代表吸引力非常小，9代表吸引力非常大)</p>,1,post_test,lmj-4.jpg
"""","""","""",Edge,120.0.0.0,"""","""","""","""","""","""",html-keyboard-response,138,512646,0.0-6.0-0.21,135,1,2023/12/21 8:34,88e23e57077159ed4f24370af8da4c16,223.104.160.72,"Mozilla/5.0 (Windows NT 10.0; Win64; x64) AppleWebKit/537.36 (KHTML, like Gecko) Chrome/120.0.0.0 Safari/537.36 Edg/120.0.0.0",WebKit,Windows,10,null,"zh-CN,zh;q=0.9,en;q=0.8,en-GB;q=0.7,en-US;q=0.6","""",null,"""","""","""","""","""","""",+,null,"""",""""
"""","""","""",Edge,120.0.0.0,"""","""","""","""","""","""",html-button-response,139,516908,0.0-6.0-1.21,135,1,2023/12/21 8:34,88e23e57077159ed4f24370af8da4c16,223.104.160.72,"Mozilla/5.0 (Windows NT 10.0; Win64; x64) AppleWebKit/537.36 (KHTML, like Gecko) Chrome/120.0.0.0 Safari/537.36 Edg/120.0.0.0",WebKit,Windows,10,null,"zh-CN,zh;q=0.9,en;q=0.8,en-GB;q=0.7,en-US;q=0.6","""",4260,"""","""","""","""","""","""",<img src='nmj-8.jpg'>\n                              <p class='attract'>该异性对您来说吸引力评分是</p>\n                              <p class='tips'>(1代表吸引力非常小，9代表吸引力非常大)</p>,0,pre_test,nmj-8.jpg
"""","""","""",Edge,120.0.0.0,"""","""","""","""","""","""",instructions,140,517804,0.0-6.0-2.21,135,1,2023/12/21 8:34,88e23e57077159ed4f24370af8da4c16,223.104.160.72,"Mozilla/5.0 (Windows NT 10.0; Win64; x64) AppleWebKit/537.36 (KHTML, like Gecko) Chrome/120.0.0.0 Safari/537.36 Edg/120.0.0.0",WebKit,Windows,10,null,"zh-CN,zh;q=0.9,en;q=0.8,en-GB;q=0.7,en-US;q=0.6","""",894,"""","""","""","""","""","[{""page_index"":0,""viewing_time"":894}]","""","""",闺蜜,""""
"""","""","""",Edge,120.0.0.0,"""","""","""","""","""","""",html-button-response,141,518964,0.0-6.0-3.21,135,1,2023/12/21 8:34,88e23e57077159ed4f24370af8da4c16,223.104.160.72,"Mozilla/5.0 (Windows NT 10.0; Win64; x64) AppleWebKit/537.36 (KHTML, like Gecko) Chrome/120.0.0.0 Safari/537.36 Edg/120.0.0.0",WebKit,Windows,10,null,"zh-CN,zh;q=0.9,en;q=0.8,en-GB;q=0.7,en-US;q=0.6","""",1157,"""","""","""","""","""","""",<p class='attract'>以下有两个圆圈，一个代表你自己，一个代表刚刚你想象中的她，重叠部分代表你们的亲密程度，\n                              重叠部分越大代表你们之间越亲密，请选择以下哪个可以代表你们之间的亲密度</p>\n                              <img src='distance.png' width=85%>,3,distance,""""
"""","""","""",Edge,120.0.0.0,"""","""","""","""","""","""",instructions,142,520908,0.0-6.0-4.21,135,1,2023/12/21 8:34,88e23e57077159ed4f24370af8da4c16,223.104.160.72,"Mozilla/5.0 (Windows NT 10.0; Win64; x64) AppleWebKit/537.36 (KHTML, like Gecko) Chrome/120.0.0.0 Safari/537.36 Edg/120.0.0.0",WebKit,Windows,10,null,"zh-CN,zh;q=0.9,en;q=0.8,en-GB;q=0.7,en-US;q=0.6","""",1941,"""","""","""","""","""","[{""page_index"":0,""viewing_time"":1941}]","""","""","""",""""
"""","""","""",Edge,120.0.0.0,"""","""","""","""","""","""",html-button-response,143,524876,0.0-6.0-5.21,135,1,2023/12/21 8:34,88e23e57077159ed4f24370af8da4c16,223.104.160.72,"Mozilla/5.0 (Windows NT 10.0; Win64; x64) AppleWebKit/537.36 (KHTML, like Gecko) Chrome/120.0.0.0 Safari/537.36 Edg/120.0.0.0",WebKit,Windows,10,null,"zh-CN,zh;q=0.9,en;q=0.8,en-GB;q=0.7,en-US;q=0.6","""",3965,"""","""","""","""","""","""",<img src='nmj-8.jpg'>\n                          <p class='attract'>该异性对您来说吸引力评分是</p>\n                          <p class='tips'>(1代表吸引力非常小，9代表吸引力非常大)</p>,1,post_test,nmj-8.jpg
"""","""","""",Edge,120.0.0.0,"""","""","""","""","""","""",html-keyboard-response,144,525379,0.0-6.0-0.22,135,1,2023/12/21 8:34,88e23e57077159ed4f24370af8da4c16,223.104.160.72,"Mozilla/5.0 (Windows NT 10.0; Win64; x64) AppleWebKit/537.36 (KHTML, like Gecko) Chrome/120.0.0.0 Safari/537.36 Edg/120.0.0.0",WebKit,Windows,10,null,"zh-CN,zh;q=0.9,en;q=0.8,en-GB;q=0.7,en-US;q=0.6","""",null,"""","""","""","""","""","""",+,null,"""",""""
"""","""","""",Edge,120.0.0.0,"""","""","""","""","""","""",html-button-response,145,528948,0.0-6.0-1.22,135,1,2023/12/21 8:34,88e23e57077159ed4f24370af8da4c16,223.104.160.72,"Mozilla/5.0 (Windows NT 10.0; Win64; x64) AppleWebKit/537.36 (KHTML, like Gecko) Chrome/120.0.0.0 Safari/537.36 Edg/120.0.0.0",WebKit,Windows,10,null,"zh-CN,zh;q=0.9,en;q=0.8,en-GB;q=0.7,en-US;q=0.6","""",3566,"""","""","""","""","""","""",<img src='nmj-7.jpg'>\n                              <p class='attract'>该异性对您来说吸引力评分是</p>\n                              <p class='tips'>(1代表吸引力非常小，9代表吸引力非常大)</p>,1,pre_test,nmj-7.jpg
"""","""","""",Edge,120.0.0.0,"""","""","""","""","""","""",instructions,146,529837,0.0-6.0-2.22,135,1,2023/12/21 8:34,88e23e57077159ed4f24370af8da4c16,223.104.160.72,"Mozilla/5.0 (Windows NT 10.0; Win64; x64) AppleWebKit/537.36 (KHTML, like Gecko) Chrome/120.0.0.0 Safari/537.36 Edg/120.0.0.0",WebKit,Windows,10,null,"zh-CN,zh;q=0.9,en;q=0.8,en-GB;q=0.7,en-US;q=0.6","""",886,"""","""","""","""","""","[{""page_index"":0,""viewing_time"":886}]","""","""",素不相识,""""
"""","""","""",Edge,120.0.0.0,"""","""","""","""","""","""",html-button-response,147,531068,0.0-6.0-3.22,135,1,2023/12/21 8:34,88e23e57077159ed4f24370af8da4c16,223.104.160.72,"Mozilla/5.0 (Windows NT 10.0; Win64; x64) AppleWebKit/537.36 (KHTML, like Gecko) Chrome/120.0.0.0 Safari/537.36 Edg/120.0.0.0",WebKit,Windows,10,null,"zh-CN,zh;q=0.9,en;q=0.8,en-GB;q=0.7,en-US;q=0.6","""",1229,"""","""","""","""","""","""",<p class='attract'>以下有两个圆圈，一个代表你自己，一个代表刚刚你想象中的她，重叠部分代表你们的亲密程度，\n                              重叠部分越大代表你们之间越亲密，请选择以下哪个可以代表你们之间的亲密度</p>\n                              <img src='distance.png' width=85%>,0,distance,""""
"""","""","""",Edge,120.0.0.0,"""","""","""","""","""","""",instructions,148,531860,0.0-6.0-4.22,135,1,2023/12/21 8:34,88e23e57077159ed4f24370af8da4c16,223.104.160.72,"Mozilla/5.0 (Windows NT 10.0; Win64; x64) AppleWebKit/537.36 (KHTML, like Gecko) Chrome/120.0.0.0 Safari/537.36 Edg/120.0.0.0",WebKit,Windows,10,null,"zh-CN,zh;q=0.9,en;q=0.8,en-GB;q=0.7,en-US;q=0.6","""",789,"""","""","""","""","""","[{""page_index"":0,""viewing_time"":789}]","""","""","""",""""
"""","""","""",Edge,120.0.0.0,"""","""","""","""","""","""",html-button-response,149,535820,0.0-6.0-5.22,135,1,2023/12/21 8:34,88e23e57077159ed4f24370af8da4c16,223.104.160.72,"Mozilla/5.0 (Windows NT 10.0; Win64; x64) AppleWebKit/537.36 (KHTML, like Gecko) Chrome/120.0.0.0 Safari/537.36 Edg/120.0.0.0",WebKit,Windows,10,null,"zh-CN,zh;q=0.9,en;q=0.8,en-GB;q=0.7,en-US;q=0.6","""",3957,"""","""","""","""","""","""",<img src='nmj-7.jpg'>\n                          <p class='attract'>该异性对您来说吸引力评分是</p>\n                          <p class='tips'>(1代表吸引力非常小，9代表吸引力非常大)</p>,1,post_test,nmj-7.jpg
"""","""","""",Edge,120.0.0.0,"""","""","""","""","""","""",html-keyboard-response,150,536323,0.0-6.0-0.23,135,1,2023/12/21 8:34,88e23e57077159ed4f24370af8da4c16,223.104.160.72,"Mozilla/5.0 (Windows NT 10.0; Win64; x64) AppleWebKit/537.36 (KHTML, like Gecko) Chrome/120.0.0.0 Safari/537.36 Edg/120.0.0.0",WebKit,Windows,10,null,"zh-CN,zh;q=0.9,en;q=0.8,en-GB;q=0.7,en-US;q=0.6","""",null,"""","""","""","""","""","""",+,null,"""",""""
"""","""","""",Edge,120.0.0.0,"""","""","""","""","""","""",html-button-response,151,539884,0.0-6.0-1.23,135,1,2023/12/21 8:34,88e23e57077159ed4f24370af8da4c16,223.104.160.72,"Mozilla/5.0 (Windows NT 10.0; Win64; x64) AppleWebKit/537.36 (KHTML, like Gecko) Chrome/120.0.0.0 Safari/537.36 Edg/120.0.0.0",WebKit,Windows,10,null,"zh-CN,zh;q=0.9,en;q=0.8,en-GB;q=0.7,en-US;q=0.6","""",3558,"""","""","""","""","""","""",<img src='lmj-3.png'>\n                              <p class='attract'>该异性对您来说吸引力评分是</p>\n                              <p class='tips'>(1代表吸引力非常小，9代表吸引力非常大)</p>,1,pre_test,lmj-3.png
"""","""","""",Edge,120.0.0.0,"""","""","""","""","""","""",instructions,152,541341,0.0-6.0-2.23,135,1,2023/12/21 8:34,88e23e57077159ed4f24370af8da4c16,223.104.160.72,"Mozilla/5.0 (Windows NT 10.0; Win64; x64) AppleWebKit/537.36 (KHTML, like Gecko) Chrome/120.0.0.0 Safari/537.36 Edg/120.0.0.0",WebKit,Windows,10,null,"zh-CN,zh;q=0.9,en;q=0.8,en-GB;q=0.7,en-US;q=0.6","""",1454,"""","""","""","""","""","[{""page_index"":0,""viewing_time"":1454}]","""","""",喜欢的明星/小说人物,""""
"""","""","""",Edge,120.0.0.0,"""","""","""","""","""","""",html-button-response,153,542908,0.0-6.0-3.23,135,1,2023/12/21 8:34,88e23e57077159ed4f24370af8da4c16,223.104.160.72,"Mozilla/5.0 (Windows NT 10.0; Win64; x64) AppleWebKit/537.36 (KHTML, like Gecko) Chrome/120.0.0.0 Safari/537.36 Edg/120.0.0.0",WebKit,Windows,10,null,"zh-CN,zh;q=0.9,en;q=0.8,en-GB;q=0.7,en-US;q=0.6","""",1565,"""","""","""","""","""","""",<p class='attract'>以下有两个圆圈，一个代表你自己，一个代表刚刚你想象中的她，重叠部分代表你们的亲密程度，\n                              重叠部分越大代表你们之间越亲密，请选择以下哪个可以代表你们之间的亲密度</p>\n                              <img src='distance.png' width=85%>,1,distance,""""
"""","""","""",Edge,120.0.0.0,"""","""","""","""","""","""",instructions,154,543964,0.0-6.0-4.23,135,1,2023/12/21 8:34,88e23e57077159ed4f24370af8da4c16,223.104.160.72,"Mozilla/5.0 (Windows NT 10.0; Win64; x64) AppleWebKit/537.36 (KHTML, like Gecko) Chrome/120.0.0.0 Safari/537.36 Edg/120.0.0.0",WebKit,Windows,10,null,"zh-CN,zh;q=0.9,en;q=0.8,en-GB;q=0.7,en-US;q=0.6","""",1054,"""","""","""","""","""","[{""page_index"":0,""viewing_time"":1054}]","""","""","""",""""
"""","""","""",Edge,120.0.0.0,"""","""","""","""","""","""",html-button-response,155,545668,0.0-6.0-5.23,135,1,2023/12/21 8:34,88e23e57077159ed4f24370af8da4c16,223.104.160.72,"Mozilla/5.0 (Windows NT 10.0; Win64; x64) AppleWebKit/537.36 (KHTML, like Gecko) Chrome/120.0.0.0 Safari/537.36 Edg/120.0.0.0",WebKit,Windows,10,null,"zh-CN,zh;q=0.9,en;q=0.8,en-GB;q=0.7,en-US;q=0.6","""",1701,"""","""","""","""","""","""",<img src='lmj-3.png'>\n                          <p class='attract'>该异性对您来说吸引力评分是</p>\n                          <p class='tips'>(1代表吸引力非常小，9代表吸引力非常大)</p>,0,post_test,lmj-3.png
"""","""","""",Edge,120.0.0.0,"""","""","""","""","""","""",html-keyboard-response,156,546172,0.0-6.0-0.24,135,1,2023/12/21 8:34,88e23e57077159ed4f24370af8da4c16,223.104.160.72,"Mozilla/5.0 (Windows NT 10.0; Win64; x64) AppleWebKit/537.36 (KHTML, like Gecko) Chrome/120.0.0.0 Safari/537.36 Edg/120.0.0.0",WebKit,Windows,10,null,"zh-CN,zh;q=0.9,en;q=0.8,en-GB;q=0.7,en-US;q=0.6","""",null,"""","""","""","""","""","""",+,null,"""",""""
"""","""","""",Edge,120.0.0.0,"""","""","""","""","""","""",html-button-response,157,548764,0.0-6.0-1.24,135,1,2023/12/21 8:34,88e23e57077159ed4f24370af8da4c16,223.104.160.72,"Mozilla/5.0 (Windows NT 10.0; Win64; x64) AppleWebKit/537.36 (KHTML, like Gecko) Chrome/120.0.0.0 Safari/537.36 Edg/120.0.0.0",WebKit,Windows,10,null,"zh-CN,zh;q=0.9,en;q=0.8,en-GB;q=0.7,en-US;q=0.6","""",2589,"""","""","""","""","""","""",<img src='nmj-8.jpg'>\n                              <p class='attract'>该异性对您来说吸引力评分是</p>\n                              <p class='tips'>(1代表吸引力非常小，9代表吸引力非常大)</p>,0,pre_test,nmj-8.jpg
"""","""","""",Edge,120.0.0.0,"""","""","""","""","""","""",instructions,158,549620,0.0-6.0-2.24,135,1,2023/12/21 8:34,88e23e57077159ed4f24370af8da4c16,223.104.160.72,"Mozilla/5.0 (Windows NT 10.0; Win64; x64) AppleWebKit/537.36 (KHTML, like Gecko) Chrome/120.0.0.0 Safari/537.36 Edg/120.0.0.0",WebKit,Windows,10,null,"zh-CN,zh;q=0.9,en;q=0.8,en-GB;q=0.7,en-US;q=0.6","""",853,"""","""","""","""","""","[{""page_index"":0,""viewing_time"":853}]","""","""",素不相识,""""
"""","""","""",Edge,120.0.0.0,"""","""","""","""","""","""",html-button-response,159,550868,0.0-6.0-3.24,135,1,2023/12/21 8:34,88e23e57077159ed4f24370af8da4c16,223.104.160.72,"Mozilla/5.0 (Windows NT 10.0; Win64; x64) AppleWebKit/537.36 (KHTML, like Gecko) Chrome/120.0.0.0 Safari/537.36 Edg/120.0.0.0",WebKit,Windows,10,null,"zh-CN,zh;q=0.9,en;q=0.8,en-GB;q=0.7,en-US;q=0.6","""",1246,"""","""","""","""","""","""",<p class='attract'>以下有两个圆圈，一个代表你自己，一个代表刚刚你想象中的她，重叠部分代表你们的亲密程度，\n                              重叠部分越大代表你们之间越亲密，请选择以下哪个可以代表你们之间的亲密度</p>\n                              <img src='distance.png' width=85%>,1,distance,""""
"""","""","""",Edge,120.0.0.0,"""","""","""","""","""","""",instructions,160,552180,0.0-6.0-4.24,135,1,2023/12/21 8:34,88e23e57077159ed4f24370af8da4c16,223.104.160.72,"Mozilla/5.0 (Windows NT 10.0; Win64; x64) AppleWebKit/537.36 (KHTML, like Gecko) Chrome/120.0.0.0 Safari/537.36 Edg/120.0.0.0",WebKit,Windows,10,null,"zh-CN,zh;q=0.9,en;q=0.8,en-GB;q=0.7,en-US;q=0.6","""",1309,"""","""","""","""","""","[{""page_index"":0,""viewing_time"":1309}]","""","""","""",""""
"""","""","""",Edge,120.0.0.0,"""","""","""","""","""","""",html-button-response,161,553156,0.0-6.0-5.24,135,1,2023/12/21 8:34,88e23e57077159ed4f24370af8da4c16,223.104.160.72,"Mozilla/5.0 (Windows NT 10.0; Win64; x64) AppleWebKit/537.36 (KHTML, like Gecko) Chrome/120.0.0.0 Safari/537.36 Edg/120.0.0.0",WebKit,Windows,10,null,"zh-CN,zh;q=0.9,en;q=0.8,en-GB;q=0.7,en-US;q=0.6","""",973,"""","""","""","""","""","""",<img src='nmj-8.jpg'>\n                          <p class='attract'>该异性对您来说吸引力评分是</p>\n                          <p class='tips'>(1代表吸引力非常小，9代表吸引力非常大)</p>,0,post_test,nmj-8.jpg
"""","""","""",Edge,120.0.0.0,"""","""","""","""","""","""",html-keyboard-response,162,553659,0.0-6.0-0.25,135,1,2023/12/21 8:34,88e23e57077159ed4f24370af8da4c16,223.104.160.72,"Mozilla/5.0 (Windows NT 10.0; Win64; x64) AppleWebKit/537.36 (KHTML, like Gecko) Chrome/120.0.0.0 Safari/537.36 Edg/120.0.0.0",WebKit,Windows,10,null,"zh-CN,zh;q=0.9,en;q=0.8,en-GB;q=0.7,en-US;q=0.6","""",null,"""","""","""","""","""","""",+,null,"""",""""
"""","""","""",Edge,120.0.0.0,"""","""","""","""","""","""",html-button-response,163,556548,0.0-6.0-1.25,135,1,2023/12/21 8:34,88e23e57077159ed4f24370af8da4c16,223.104.160.72,"Mozilla/5.0 (Windows NT 10.0; Win64; x64) AppleWebKit/537.36 (KHTML, like Gecko) Chrome/120.0.0.0 Safari/537.36 Edg/120.0.0.0",WebKit,Windows,10,null,"zh-CN,zh;q=0.9,en;q=0.8,en-GB;q=0.7,en-US;q=0.6","""",2887,"""","""","""","""","""","""",<img src='lmj-3.png'>\n                              <p class='attract'>该异性对您来说吸引力评分是</p>\n                              <p class='tips'>(1代表吸引力非常小，9代表吸引力非常大)</p>,1,pre_test,lmj-3.png
"""","""","""",Edge,120.0.0.0,"""","""","""","""","""","""",instructions,164,557932,0.0-6.0-2.25,135,1,2023/12/21 8:34,88e23e57077159ed4f24370af8da4c16,223.104.160.72,"Mozilla/5.0 (Windows NT 10.0; Win64; x64) AppleWebKit/537.36 (KHTML, like Gecko) Chrome/120.0.0.0 Safari/537.36 Edg/120.0.0.0",WebKit,Windows,10,null,"zh-CN,zh;q=0.9,en;q=0.8,en-GB;q=0.7,en-US;q=0.6","""",1381,"""","""","""","""","""","[{""page_index"":0,""viewing_time"":1381}]","""","""",闺蜜,""""
"""","""","""",Edge,120.0.0.0,"""","""","""","""","""","""",html-button-response,165,562773,0.0-6.0-3.25,135,1,2023/12/21 8:34,88e23e57077159ed4f24370af8da4c16,223.104.160.72,"Mozilla/5.0 (Windows NT 10.0; Win64; x64) AppleWebKit/537.36 (KHTML, like Gecko) Chrome/120.0.0.0 Safari/537.36 Edg/120.0.0.0",WebKit,Windows,10,null,"zh-CN,zh;q=0.9,en;q=0.8,en-GB;q=0.7,en-US;q=0.6","""",4837,"""","""","""","""","""","""",<p class='attract'>以下有两个圆圈，一个代表你自己，一个代表刚刚你想象中的她，重叠部分代表你们的亲密程度，\n                              重叠部分越大代表你们之间越亲密，请选择以下哪个可以代表你们之间的亲密度</p>\n                              <img src='distance.png' width=85%>,1,distance,""""
"""","""","""",Edge,120.0.0.0,"""","""","""","""","""","""",instructions,166,563941,0.0-6.0-4.25,135,1,2023/12/21 8:34,88e23e57077159ed4f24370af8da4c16,223.104.160.72,"Mozilla/5.0 (Windows NT 10.0; Win64; x64) AppleWebKit/537.36 (KHTML, like Gecko) Chrome/120.0.0.0 Safari/537.36 Edg/120.0.0.0",WebKit,Windows,10,null,"zh-CN,zh;q=0.9,en;q=0.8,en-GB;q=0.7,en-US;q=0.6","""",1166,"""","""","""","""","""","[{""page_index"":0,""viewing_time"":1166}]","""","""","""",""""
"""","""","""",Edge,120.0.0.0,"""","""","""","""","""","""",html-button-response,167,565596,0.0-6.0-5.25,135,1,2023/12/21 8:34,88e23e57077159ed4f24370af8da4c16,223.104.160.72,"Mozilla/5.0 (Windows NT 10.0; Win64; x64) AppleWebKit/537.36 (KHTML, like Gecko) Chrome/120.0.0.0 Safari/537.36 Edg/120.0.0.0",WebKit,Windows,10,null,"zh-CN,zh;q=0.9,en;q=0.8,en-GB;q=0.7,en-US;q=0.6","""",1653,"""","""","""","""","""","""",<img src='lmj-3.png'>\n                          <p class='attract'>该异性对您来说吸引力评分是</p>\n                          <p class='tips'>(1代表吸引力非常小，9代表吸引力非常大)</p>,0,post_test,lmj-3.png
"""","""","""",Edge,120.0.0.0,"""","""","""","""","""","""",html-keyboard-response,168,566099,0.0-6.0-0.26,135,1,2023/12/21 8:34,88e23e57077159ed4f24370af8da4c16,223.104.160.72,"Mozilla/5.0 (Windows NT 10.0; Win64; x64) AppleWebKit/537.36 (KHTML, like Gecko) Chrome/120.0.0.0 Safari/537.36 Edg/120.0.0.0",WebKit,Windows,10,null,"zh-CN,zh;q=0.9,en;q=0.8,en-GB;q=0.7,en-US;q=0.6","""",null,"""","""","""","""","""","""",+,null,"""",""""
"""","""","""",Edge,120.0.0.0,"""","""","""","""","""","""",html-button-response,169,571628,0.0-6.0-1.26,135,1,2023/12/21 8:34,88e23e57077159ed4f24370af8da4c16,223.104.160.72,"Mozilla/5.0 (Windows NT 10.0; Win64; x64) AppleWebKit/537.36 (KHTML, like Gecko) Chrome/120.0.0.0 Safari/537.36 Edg/120.0.0.0",WebKit,Windows,10,null,"zh-CN,zh;q=0.9,en;q=0.8,en-GB;q=0.7,en-US;q=0.6","""",5525,"""","""","""","""","""","""",<img src='nmj-7.jpg'>\n                              <p class='attract'>该异性对您来说吸引力评分是</p>\n                              <p class='tips'>(1代表吸引力非常小，9代表吸引力非常大)</p>,1,pre_test,nmj-7.jpg
"""","""","""",Edge,120.0.0.0,"""","""","""","""","""","""",instructions,170,572652,0.0-6.0-2.26,135,1,2023/12/21 8:34,88e23e57077159ed4f24370af8da4c16,223.104.160.72,"Mozilla/5.0 (Windows NT 10.0; Win64; x64) AppleWebKit/537.36 (KHTML, like Gecko) Chrome/120.0.0.0 Safari/537.36 Edg/120.0.0.0",WebKit,Windows,10,null,"zh-CN,zh;q=0.9,en;q=0.8,en-GB;q=0.7,en-US;q=0.6","""",1022,"""","""","""","""","""","[{""page_index"":0,""viewing_time"":1022}]","""","""",闺蜜,""""
"""","""","""",Edge,120.0.0.0,"""","""","""","""","""","""",html-button-response,171,579165,0.0-6.0-3.26,135,1,2023/12/21 8:34,88e23e57077159ed4f24370af8da4c16,223.104.160.72,"Mozilla/5.0 (Windows NT 10.0; Win64; x64) AppleWebKit/537.36 (KHTML, like Gecko) Chrome/120.0.0.0 Safari/537.36 Edg/120.0.0.0",WebKit,Windows,10,null,"zh-CN,zh;q=0.9,en;q=0.8,en-GB;q=0.7,en-US;q=0.6","""",6509,"""","""","""","""","""","""",<p class='attract'>以下有两个圆圈，一个代表你自己，一个代表刚刚你想象中的她，重叠部分代表你们的亲密程度，\n                              重叠部分越大代表你们之间越亲密，请选择以下哪个可以代表你们之间的亲密度</p>\n                              <img src='distance.png' width=85%>,1,distance,""""
"""","""","""",Edge,120.0.0.0,"""","""","""","""","""","""",instructions,172,580229,0.0-6.0-4.26,135,1,2023/12/21 8:34,88e23e57077159ed4f24370af8da4c16,223.104.160.72,"Mozilla/5.0 (Windows NT 10.0; Win64; x64) AppleWebKit/537.36 (KHTML, like Gecko) Chrome/120.0.0.0 Safari/537.36 Edg/120.0.0.0",WebKit,Windows,10,null,"zh-CN,zh;q=0.9,en;q=0.8,en-GB;q=0.7,en-US;q=0.6","""",1061,"""","""","""","""","""","[{""page_index"":0,""viewing_time"":1061}]","""","""","""",""""
"""","""","""",Edge,120.0.0.0,"""","""","""","""","""","""",html-button-response,173,582517,0.0-6.0-5.26,135,1,2023/12/21 8:34,88e23e57077159ed4f24370af8da4c16,223.104.160.72,"Mozilla/5.0 (Windows NT 10.0; Win64; x64) AppleWebKit/537.36 (KHTML, like Gecko) Chrome/120.0.0.0 Safari/537.36 Edg/120.0.0.0",WebKit,Windows,10,null,"zh-CN,zh;q=0.9,en;q=0.8,en-GB;q=0.7,en-US;q=0.6","""",2285,"""","""","""","""","""","""",<img src='nmj-7.jpg'>\n                          <p class='attract'>该异性对您来说吸引力评分是</p>\n                          <p class='tips'>(1代表吸引力非常小，9代表吸引力非常大)</p>,1,post_test,nmj-7.jpg
"""","""","""",Edge,120.0.0.0,"""","""","""","""","""","""",html-keyboard-response,174,583020,0.0-6.0-0.27,135,1,2023/12/21 8:34,88e23e57077159ed4f24370af8da4c16,223.104.160.72,"Mozilla/5.0 (Windows NT 10.0; Win64; x64) AppleWebKit/537.36 (KHTML, like Gecko) Chrome/120.0.0.0 Safari/537.36 Edg/120.0.0.0",WebKit,Windows,10,null,"zh-CN,zh;q=0.9,en;q=0.8,en-GB;q=0.7,en-US;q=0.6","""",null,"""","""","""","""","""","""",+,null,"""",""""
"""","""","""",Edge,120.0.0.0,"""","""","""","""","""","""",html-button-response,175,589628,0.0-6.0-1.27,135,1,2023/12/21 8:34,88e23e57077159ed4f24370af8da4c16,223.104.160.72,"Mozilla/5.0 (Windows NT 10.0; Win64; x64) AppleWebKit/537.36 (KHTML, like Gecko) Chrome/120.0.0.0 Safari/537.36 Edg/120.0.0.0",WebKit,Windows,10,null,"zh-CN,zh;q=0.9,en;q=0.8,en-GB;q=0.7,en-US;q=0.6","""",6605,"""","""","""","""","""","""",<img src='nma-5.jpg'>\n                              <p class='attract'>该异性对您来说吸引力评分是</p>\n                              <p class='tips'>(1代表吸引力非常小，9代表吸引力非常大)</p>,1,pre_test,nma-5.jpg
"""","""","""",Edge,120.0.0.0,"""","""","""","""","""","""",instructions,176,590428,0.0-6.0-2.27,135,1,2023/12/21 8:34,88e23e57077159ed4f24370af8da4c16,223.104.160.72,"Mozilla/5.0 (Windows NT 10.0; Win64; x64) AppleWebKit/537.36 (KHTML, like Gecko) Chrome/120.0.0.0 Safari/537.36 Edg/120.0.0.0",WebKit,Windows,10,null,"zh-CN,zh;q=0.9,en;q=0.8,en-GB;q=0.7,en-US;q=0.6","""",798,"""","""","""","""","""","[{""page_index"":0,""viewing_time"":797}]","""","""",闺蜜,""""
"""","""","""",Edge,120.0.0.0,"""","""","""","""","""","""",html-button-response,177,593260,0.0-6.0-3.27,135,1,2023/12/21 8:34,88e23e57077159ed4f24370af8da4c16,223.104.160.72,"Mozilla/5.0 (Windows NT 10.0; Win64; x64) AppleWebKit/537.36 (KHTML, like Gecko) Chrome/120.0.0.0 Safari/537.36 Edg/120.0.0.0",WebKit,Windows,10,null,"zh-CN,zh;q=0.9,en;q=0.8,en-GB;q=0.7,en-US;q=0.6","""",2829,"""","""","""","""","""","""",<p class='attract'>以下有两个圆圈，一个代表你自己，一个代表刚刚你想象中的她，重叠部分代表你们的亲密程度，\n                              重叠部分越大代表你们之间越亲密，请选择以下哪个可以代表你们之间的亲密度</p>\n                              <img src='distance.png' width=85%>,2,distance,""""
"""","""","""",Edge,120.0.0.0,"""","""","""","""","""","""",instructions,178,594316,0.0-6.0-4.27,135,1,2023/12/21 8:34,88e23e57077159ed4f24370af8da4c16,223.104.160.72,"Mozilla/5.0 (Windows NT 10.0; Win64; x64) AppleWebKit/537.36 (KHTML, like Gecko) Chrome/120.0.0.0 Safari/537.36 Edg/120.0.0.0",WebKit,Windows,10,null,"zh-CN,zh;q=0.9,en;q=0.8,en-GB;q=0.7,en-US;q=0.6","""",1053,"""","""","""","""","""","[{""page_index"":0,""viewing_time"":1053}]","""","""","""",""""
"""","""","""",Edge,120.0.0.0,"""","""","""","""","""","""",html-button-response,179,595828,0.0-6.0-5.27,135,1,2023/12/21 8:34,88e23e57077159ed4f24370af8da4c16,223.104.160.72,"Mozilla/5.0 (Windows NT 10.0; Win64; x64) AppleWebKit/537.36 (KHTML, like Gecko) Chrome/120.0.0.0 Safari/537.36 Edg/120.0.0.0",WebKit,Windows,10,null,"zh-CN,zh;q=0.9,en;q=0.8,en-GB;q=0.7,en-US;q=0.6","""",1509,"""","""","""","""","""","""",<img src='nma-5.jpg'>\n                          <p class='attract'>该异性对您来说吸引力评分是</p>\n                          <p class='tips'>(1代表吸引力非常小，9代表吸引力非常大)</p>,4,post_test,nma-5.jpg
"""","""","""",Edge,120.0.0.0,"""","""","""","""","""","""",html-keyboard-response,180,596341,0.0-6.0-0.28,135,1,2023/12/21 8:34,88e23e57077159ed4f24370af8da4c16,223.104.160.72,"Mozilla/5.0 (Windows NT 10.0; Win64; x64) AppleWebKit/537.36 (KHTML, like Gecko) Chrome/120.0.0.0 Safari/537.36 Edg/120.0.0.0",WebKit,Windows,10,null,"zh-CN,zh;q=0.9,en;q=0.8,en-GB;q=0.7,en-US;q=0.6","""",null,"""","""","""","""","""","""",+,null,"""",""""
"""","""","""",Edge,120.0.0.0,"""","""","""","""","""","""",html-button-response,181,604981,0.0-6.0-1.28,135,1,2023/12/21 8:34,88e23e57077159ed4f24370af8da4c16,223.104.160.72,"Mozilla/5.0 (Windows NT 10.0; Win64; x64) AppleWebKit/537.36 (KHTML, like Gecko) Chrome/120.0.0.0 Safari/537.36 Edg/120.0.0.0",WebKit,Windows,10,null,"zh-CN,zh;q=0.9,en;q=0.8,en-GB;q=0.7,en-US;q=0.6","""",8636,"""","""","""","""","""","""",<img src='lma-2.jpg'>\n                              <p class='attract'>该异性对您来说吸引力评分是</p>\n                              <p class='tips'>(1代表吸引力非常小，9代表吸引力非常大)</p>,1,pre_test,lma-2.jpg
"""","""","""",Edge,120.0.0.0,"""","""","""","""","""","""",instructions,182,605997,0.0-6.0-2.28,135,1,2023/12/21 8:34,88e23e57077159ed4f24370af8da4c16,223.104.160.72,"Mozilla/5.0 (Windows NT 10.0; Win64; x64) AppleWebKit/537.36 (KHTML, like Gecko) Chrome/120.0.0.0 Safari/537.36 Edg/120.0.0.0",WebKit,Windows,10,null,"zh-CN,zh;q=0.9,en;q=0.8,en-GB;q=0.7,en-US;q=0.6","""",1013,"""","""","""","""","""","[{""page_index"":0,""viewing_time"":1013}]","""","""",素不相识,""""
"""","""","""",Edge,120.0.0.0,"""","""","""","""","""","""",html-button-response,183,606597,0.0-6.0-3.28,135,1,2023/12/21 8:34,88e23e57077159ed4f24370af8da4c16,223.104.160.72,"Mozilla/5.0 (Windows NT 10.0; Win64; x64) AppleWebKit/537.36 (KHTML, like Gecko) Chrome/120.0.0.0 Safari/537.36 Edg/120.0.0.0",WebKit,Windows,10,null,"zh-CN,zh;q=0.9,en;q=0.8,en-GB;q=0.7,en-US;q=0.6","""",597,"""","""","""","""","""","""",<p class='attract'>以下有两个圆圈，一个代表你自己，一个代表刚刚你想象中的她，重叠部分代表你们的亲密程度，\n                              重叠部分越大代表你们之间越亲密，请选择以下哪个可以代表你们之间的亲密度</p>\n                              <img src='distance.png' width=85%>,0,distance,""""
"""","""","""",Edge,120.0.0.0,"""","""","""","""","""","""",instructions,184,607621,0.0-6.0-4.28,135,1,2023/12/21 8:34,88e23e57077159ed4f24370af8da4c16,223.104.160.72,"Mozilla/5.0 (Windows NT 10.0; Win64; x64) AppleWebKit/537.36 (KHTML, like Gecko) Chrome/120.0.0.0 Safari/537.36 Edg/120.0.0.0",WebKit,Windows,10,null,"zh-CN,zh;q=0.9,en;q=0.8,en-GB;q=0.7,en-US;q=0.6","""",1021,"""","""","""","""","""","[{""page_index"":0,""viewing_time"":1020}]","""","""","""",""""
"""","""","""",Edge,120.0.0.0,"""","""","""","""","""","""",html-button-response,185,608341,0.0-6.0-5.28,135,1,2023/12/21 8:34,88e23e57077159ed4f24370af8da4c16,223.104.160.72,"Mozilla/5.0 (Windows NT 10.0; Win64; x64) AppleWebKit/537.36 (KHTML, like Gecko) Chrome/120.0.0.0 Safari/537.36 Edg/120.0.0.0",WebKit,Windows,10,null,"zh-CN,zh;q=0.9,en;q=0.8,en-GB;q=0.7,en-US;q=0.6","""",717,"""","""","""","""","""","""",<img src='lma-2.jpg'>\n                          <p class='attract'>该异性对您来说吸引力评分是</p>\n                          <p class='tips'>(1代表吸引力非常小，9代表吸引力非常大)</p>,2,post_test,lma-2.jpg
"""","""","""",Edge,120.0.0.0,"""","""","""","""","""","""",html-keyboard-response,186,608859,0.0-6.0-0.29,135,1,2023/12/21 8:34,88e23e57077159ed4f24370af8da4c16,223.104.160.72,"Mozilla/5.0 (Windows NT 10.0; Win64; x64) AppleWebKit/537.36 (KHTML, like Gecko) Chrome/120.0.0.0 Safari/537.36 Edg/120.0.0.0",WebKit,Windows,10,null,"zh-CN,zh;q=0.9,en;q=0.8,en-GB;q=0.7,en-US;q=0.6","""",null,"""","""","""","""","""","""",+,null,"""",""""
"""","""","""",Edge,120.0.0.0,"""","""","""","""","""","""",html-button-response,187,610701,0.0-6.0-1.29,135,1,2023/12/21 8:34,88e23e57077159ed4f24370af8da4c16,223.104.160.72,"Mozilla/5.0 (Windows NT 10.0; Win64; x64) AppleWebKit/537.36 (KHTML, like Gecko) Chrome/120.0.0.0 Safari/537.36 Edg/120.0.0.0",WebKit,Windows,10,null,"zh-CN,zh;q=0.9,en;q=0.8,en-GB;q=0.7,en-US;q=0.6","""",1839,"""","""","""","""","""","""",<img src='pma-10.png'>\n                              <p class='attract'>该异性对您来说吸引力评分是</p>\n                              <p class='tips'>(1代表吸引力非常小，9代表吸引力非常大)</p>,1,pre_test,pma-10.png
