success,rt,trial_type,trial_index,time_elapsed,internal_node_id,run_id,condition,recorded_at,source_code_version,ip,user_agent,device,browser,browser_version,platform,platform_version,referer,accept_language,value,timeout,failed_images,failed_audio,failed_video,view_history,stimulus,response,task,imgs
TRUE,31338,fullscreen,0,31449,0.0-0.0,135,1,2023/12/21 8:34,88e23e57077159ed4f24370af8da4c16,223.104.160.72,"Mozilla/5.0 (Windows NT 10.0; Win64; x64) AppleWebKit/537.36 (KHTML, like Gecko) Chrome/120.0.0.0 Safari/537.36 Edg/120.0.0.0",WebKit,Edge,120.0.0.0,Windows,10,null,"zh-CN,zh;q=0.9,en;q=0.8,en-GB;q=0.7,en-US;q=0.6","""","""","""","""","""","""","""","""","""",""""
"""","""",call-function,1,31450,0.0-1.0,135,1,2023/12/21 8:34,88e23e57077159ed4f24370af8da4c16,223.104.160.72,"Mozilla/5.0 (Windows NT 10.0; Win64; x64) AppleWebKit/537.36 (KHTML, like Gecko) Chrome/120.0.0.0 Safari/537.36 Edg/120.0.0.0",WebKit,Edge,120.0.0.0,Windows,10,null,"zh-CN,zh;q=0.9,en;q=0.8,en-GB;q=0.7,en-US;q=0.6","""","""","""","""","""","""","""","""","""",""""
TRUE,"""",preload,2,34115,0.0-2.0,135,1,2023/12/21 8:34,88e23e57077159ed4f24370af8da4c16,223.104.160.72,"Mozilla/5.0 (Windows NT 10.0; Win64; x64) AppleWebKit/537.36 (KHTML, like Gecko) Chrome/120.0.0.0 Safari/537.36 Edg/120.0.0.0",WebKit,Edge,120.0.0.0,Windows,10,null,"zh-CN,zh;q=0.9,en;q=0.8,en-GB;q=0.7,en-US;q=0.6","""",FALSE,[],[],[],"""","""","""","""",""""
"""",6249,instructions,3,40365,0.0-3.0,135,1,2023/12/21 8:34,88e23e57077159ed4f24370af8da4c16,223.104.160.72,"Mozilla/5.0 (Windows NT 10.0; Win64; x64) AppleWebKit/537.36 (KHTML, like Gecko) Chrome/120.0.0.0 Safari/537.36 Edg/120.0.0.0",WebKit,Edge,120.0.0.0,Windows,10,null,"zh-CN,zh;q=0.9,en;q=0.8,en-GB;q=0.7,en-US;q=0.6","""","""","""","""","""","[{""page_index"":0,""viewing_time"":6249}]","""","""","""",""""
"""",61920,instructions,4,102285,0.0-4.0,135,1,2023/12/21 8:34,88e23e57077159ed4f24370af8da4c16,223.104.160.72,"Mozilla/5.0 (Windows NT 10.0; Win64; x64) AppleWebKit/537.36 (KHTML, like Gecko) Chrome/120.0.0.0 Safari/537.36 Edg/120.0.0.0",WebKit,Edge,120.0.0.0,Windows,10,null,"zh-CN,zh;q=0.9,en;q=0.8,en-GB;q=0.7,en-US;q=0.6","""","""","""","""","""","[{""page_index"":0,""viewing_time"":61920}]","""","""","""",""""
"""",null,html-keyboard-response,5,102788,0.0-5.0-0.0-0.0,135,1,2023/12/21 8:34,88e23e57077159ed4f24370af8da4c16,223.104.160.72,"Mozilla/5.0 (Windows NT 10.0; Win64; x64) AppleWebKit/537.36 (KHTML, like Gecko) Chrome/120.0.0.0 Safari/537.36 Edg/120.0.0.0",WebKit,Edge,120.0.0.0,Windows,10,null,"zh-CN,zh;q=0.9,en;q=0.8,en-GB;q=0.7,en-US;q=0.6","""","""","""","""","""","""",+,null,"""",""""
"""",6399,html-button-response,6,109189,0.0-5.0-0.0-1.0,135,1,2023/12/21 8:34,88e23e57077159ed4f24370af8da4c16,223.104.160.72,"Mozilla/5.0 (Windows NT 10.0; Win64; x64) AppleWebKit/537.36 (KHTML, like Gecko) Chrome/120.0.0.0 Safari/537.36 Edg/120.0.0.0",WebKit,Edge,120.0.0.0,Windows,10,null,"zh-CN,zh;q=0.9,en;q=0.8,en-GB;q=0.7,en-US;q=0.6","""","""","""","""","""","""",<img src='practise.png'>\n                              <p class='attract'>该异性对您来说吸引力评分是</p>\n                              <p class='tips'>(1代表吸引力非常小，9代表吸引力非常大)</p>,0,pre_test,practise.png
"""",21032,instructions,7,130222,0.0-5.0-0.0-2.0,135,1,2023/12/21 8:34,88e23e57077159ed4f24370af8da4c16,223.104.160.72,"Mozilla/5.0 (Windows NT 10.0; Win64; x64) AppleWebKit/537.36 (KHTML, like Gecko) Chrome/120.0.0.0 Safari/537.36 Edg/120.0.0.0",WebKit,Edge,120.0.0.0,Windows,10,null,"zh-CN,zh;q=0.9,en;q=0.8,en-GB;q=0.7,en-US;q=0.6","""","""","""","""","""","[{""page_index"":0,""viewing_time"":21031}]","""","""",闺蜜,""""
"""",25134,html-button-response,8,155357,0.0-5.0-0.0-3.0,135,1,2023/12/21 8:34,88e23e57077159ed4f24370af8da4c16,223.104.160.72,"Mozilla/5.0 (Windows NT 10.0; Win64; x64) AppleWebKit/537.36 (KHTML, like Gecko) Chrome/120.0.0.0 Safari/537.36 Edg/120.0.0.0",WebKit,Edge,120.0.0.0,Windows,10,null,"zh-CN,zh;q=0.9,en;q=0.8,en-GB;q=0.7,en-US;q=0.6","""","""","""","""","""","""",<p class='attract'>以下有两个圆圈，一个代表你自己，一个代表刚刚你想象中的她，重叠部分代表你们的亲密程度，\n                              重叠部分越大代表你们之间越亲密，请选择以下哪个可以代表你们之间的亲密度</p>\n                              <img src='distance.png' width=85%>,3,distance,""""
"""",9560,instructions,9,164917,0.0-5.0-0.0-4.0,135,1,2023/12/21 8:34,88e23e57077159ed4f24370af8da4c16,223.104.160.72,"Mozilla/5.0 (Windows NT 10.0; Win64; x64) AppleWebKit/537.36 (KHTML, like Gecko) Chrome/120.0.0.0 Safari/537.36 Edg/120.0.0.0",WebKit,Edge,120.0.0.0,Windows,10,null,"zh-CN,zh;q=0.9,en;q=0.8,en-GB;q=0.7,en-US;q=0.6","""","""","""","""","""","[{""page_index"":0,""viewing_time"":9560}]","""","""","""",""""
"""",5470,html-button-response,10,170389,0.0-5.0-0.0-5.0,135,1,2023/12/21 8:34,88e23e57077159ed4f24370af8da4c16,223.104.160.72,"Mozilla/5.0 (Windows NT 10.0; Win64; x64) AppleWebKit/537.36 (KHTML, like Gecko) Chrome/120.0.0.0 Safari/537.36 Edg/120.0.0.0",WebKit,Edge,120.0.0.0,Windows,10,null,"zh-CN,zh;q=0.9,en;q=0.8,en-GB;q=0.7,en-US;q=0.6","""","""","""","""","""","""",<img src='practise.png'>\n                          <p class='attract'>该异性对您来说吸引力评分是</p>\n                          <p class='tips'>(1代表吸引力非常小，9代表吸引力非常大)</p>,1,post_test,practise.png
"""",9590,html-keyboard-response,11,179980,0.0-5.0-1.0,135,1,2023/12/21 8:34,88e23e57077159ed4f24370af8da4c16,223.104.160.72,"Mozilla/5.0 (Windows NT 10.0; Win64; x64) AppleWebKit/537.36 (KHTML, like Gecko) Chrome/120.0.0.0 Safari/537.36 Edg/120.0.0.0",WebKit,Edge,120.0.0.0,Windows,10,null,"zh-CN,zh;q=0.9,en;q=0.8,en-GB;q=0.7,en-US;q=0.6","""","""","""","""","""","""","<p class=""h2"">若对实验程序已经明白按“enter”开始正式实验，<br/>不明白可按“q”再练习一次或询问主试</p>",enter,pra_question,""""
"""",null,html-keyboard-response,12,180491,0.0-6.0-0.0,135,1,2023/12/21 8:34,88e23e57077159ed4f24370af8da4c16,223.104.160.72,"Mozilla/5.0 (Windows NT 10.0; Win64; x64) AppleWebKit/537.36 (KHTML, like Gecko) Chrome/120.0.0.0 Safari/537.36 Edg/120.0.0.0",WebKit,Edge,120.0.0.0,Windows,10,null,"zh-CN,zh;q=0.9,en;q=0.8,en-GB;q=0.7,en-US;q=0.6","""","""","""","""","""","""",+,null,"""",""""
"""",5017,html-button-response,13,185509,0.0-6.0-1.0,135,1,2023/12/21 8:34,88e23e57077159ed4f24370af8da4c16,223.104.160.72,"Mozilla/5.0 (Windows NT 10.0; Win64; x64) AppleWebKit/537.36 (KHTML, like Gecko) Chrome/120.0.0.0 Safari/537.36 Edg/120.0.0.0",WebKit,Edge,120.0.0.0,Windows,10,null,"zh-CN,zh;q=0.9,en;q=0.8,en-GB;q=0.7,en-US;q=0.6","""","""","""","""","""","""",<img src='nma-5.jpg'>\n                              <p class='attract'>该异性对您来说吸引力评分是</p>\n                              <p class='tips'>(1代表吸引力非常小，9代表吸引力非常大)</p>,1,pre_test,nma-5.jpg
"""",6231,instructions,14,191741,0.0-6.0-2.0,135,1,2023/12/21 8:34,88e23e57077159ed4f24370af8da4c16,223.104.160.72,"Mozilla/5.0 (Windows NT 10.0; Win64; x64) AppleWebKit/537.36 (KHTML, like Gecko) Chrome/120.0.0.0 Safari/537.36 Edg/120.0.0.0",WebKit,Edge,120.0.0.0,Windows,10,null,"zh-CN,zh;q=0.9,en;q=0.8,en-GB;q=0.7,en-US;q=0.6","""","""","""","""","""","[{""page_index"":0,""viewing_time"":6231}]","""","""",素不相识,""""
"""",5279,html-button-response,15,197021,0.0-6.0-3.0,135,1,2023/12/21 8:34,88e23e57077159ed4f24370af8da4c16,223.104.160.72,"Mozilla/5.0 (Windows NT 10.0; Win64; x64) AppleWebKit/537.36 (KHTML, like Gecko) Chrome/120.0.0.0 Safari/537.36 Edg/120.0.0.0",WebKit,Edge,120.0.0.0,Windows,10,null,"zh-CN,zh;q=0.9,en;q=0.8,en-GB;q=0.7,en-US;q=0.6","""","""","""","""","""","""",<p class='attract'>以下有两个圆圈，一个代表你自己，一个代表刚刚你想象中的她，重叠部分代表你们的亲密程度，\n                              重叠部分越大代表你们之间越亲密，请选择以下哪个可以代表你们之间的亲密度</p>\n                              <img src='distance.png' width=85%>,0,distance,""""
"""",6383,instructions,16,203405,0.0-6.0-4.0,135,1,2023/12/21 8:34,88e23e57077159ed4f24370af8da4c16,223.104.160.72,"Mozilla/5.0 (Windows NT 10.0; Win64; x64) AppleWebKit/537.36 (KHTML, like Gecko) Chrome/120.0.0.0 Safari/537.36 Edg/120.0.0.0",WebKit,Edge,120.0.0.0,Windows,10,null,"zh-CN,zh;q=0.9,en;q=0.8,en-GB;q=0.7,en-US;q=0.6","""","""","""","""","""","[{""page_index"":0,""viewing_time"":6383}]","""","""","""",""""
"""",4023,html-button-response,17,207429,0.0-6.0-5.0,135,1,2023/12/21 8:34,88e23e57077159ed4f24370af8da4c16,223.104.160.72,"Mozilla/5.0 (Windows NT 10.0; Win64; x64) AppleWebKit/537.36 (KHTML, like Gecko) Chrome/120.0.0.0 Safari/537.36 Edg/120.0.0.0",WebKit,Edge,120.0.0.0,Windows,10,null,"zh-CN,zh;q=0.9,en;q=0.8,en-GB;q=0.7,en-US;q=0.6","""","""","""","""","""","""",<img src='nma-5.jpg'>\n                          <p class='attract'>该异性对您来说吸引力评分是</p>\n                          <p class='tips'>(1代表吸引力非常小，9代表吸引力非常大)</p>,2,post_test,nma-5.jpg
"""",null,html-keyboard-response,18,207931,0.0-6.0-0.1,135,1,2023/12/21 8:34,88e23e57077159ed4f24370af8da4c16,223.104.160.72,"Mozilla/5.0 (Windows NT 10.0; Win64; x64) AppleWebKit/537.36 (KHTML, like Gecko) Chrome/120.0.0.0 Safari/537.36 Edg/120.0.0.0",WebKit,Edge,120.0.0.0,Windows,10,null,"zh-CN,zh;q=0.9,en;q=0.8,en-GB;q=0.7,en-US;q=0.6","""","""","""","""","""","""",+,null,"""",""""
"""",2345,html-button-response,19,210277,0.0-6.0-1.1,135,1,2023/12/21 8:34,88e23e57077159ed4f24370af8da4c16,223.104.160.72,"Mozilla/5.0 (Windows NT 10.0; Win64; x64) AppleWebKit/537.36 (KHTML, like Gecko) Chrome/120.0.0.0 Safari/537.36 Edg/120.0.0.0",WebKit,Edge,120.0.0.0,Windows,10,null,"zh-CN,zh;q=0.9,en;q=0.8,en-GB;q=0.7,en-US;q=0.6","""","""","""","""","""","""",<img src='lma-1.jpg'>\n                              <p class='attract'>该异性对您来说吸引力评分是</p>\n                              <p class='tips'>(1代表吸引力非常小，9代表吸引力非常大)</p>,0,pre_test,lma-1.jpg
"""",7439,instructions,20,217717,0.0-6.0-2.1,135,1,2023/12/21 8:34,88e23e57077159ed4f24370af8da4c16,223.104.160.72,"Mozilla/5.0 (Windows NT 10.0; Win64; x64) AppleWebKit/537.36 (KHTML, like Gecko) Chrome/120.0.0.0 Safari/537.36 Edg/120.0.0.0",WebKit,Edge,120.0.0.0,Windows,10,null,"zh-CN,zh;q=0.9,en;q=0.8,en-GB;q=0.7,en-US;q=0.6","""","""","""","""","""","[{""page_index"":0,""viewing_time"":7439}]","""","""",喜欢的明星/小说人物,""""
"""",7967,html-button-response,21,225685,0.0-6.0-3.1,135,1,2023/12/21 8:34,88e23e57077159ed4f24370af8da4c16,223.104.160.72,"Mozilla/5.0 (Windows NT 10.0; Win64; x64) AppleWebKit/537.36 (KHTML, like Gecko) Chrome/120.0.0.0 Safari/537.36 Edg/120.0.0.0",WebKit,Edge,120.0.0.0,Windows,10,null,"zh-CN,zh;q=0.9,en;q=0.8,en-GB;q=0.7,en-US;q=0.6","""","""","""","""","""","""",<p class='attract'>以下有两个圆圈，一个代表你自己，一个代表刚刚你想象中的她，重叠部分代表你们的亲密程度，\n                              重叠部分越大代表你们之间越亲密，请选择以下哪个可以代表你们之间的亲密度</p>\n                              <img src='distance.png' width=85%>,1,distance,""""
"""",4975,instructions,22,230661,0.0-6.0-4.1,135,1,2023/12/21 8:34,88e23e57077159ed4f24370af8da4c16,223.104.160.72,"Mozilla/5.0 (Windows NT 10.0; Win64; x64) AppleWebKit/537.36 (KHTML, like Gecko) Chrome/120.0.0.0 Safari/537.36 Edg/120.0.0.0",WebKit,Edge,120.0.0.0,Windows,10,null,"zh-CN,zh;q=0.9,en;q=0.8,en-GB;q=0.7,en-US;q=0.6","""","""","""","""","""","[{""page_index"":0,""viewing_time"":4975}]","""","""","""",""""
"""",3255,html-button-response,23,233917,0.0-6.0-5.1,135,1,2023/12/21 8:34,88e23e57077159ed4f24370af8da4c16,223.104.160.72,"Mozilla/5.0 (Windows NT 10.0; Win64; x64) AppleWebKit/537.36 (KHTML, like Gecko) Chrome/120.0.0.0 Safari/537.36 Edg/120.0.0.0",WebKit,Edge,120.0.0.0,Windows,10,null,"zh-CN,zh;q=0.9,en;q=0.8,en-GB;q=0.7,en-US;q=0.6","""","""","""","""","""","""",<img src='lma-1.jpg'>\n                          <p class='attract'>该异性对您来说吸引力评分是</p>\n                          <p class='tips'>(1代表吸引力非常小，9代表吸引力非常大)</p>,1,post_test,lma-1.jpg
"""",null,html-keyboard-response,24,234422,0.0-6.0-0.2,135,1,2023/12/21 8:34,88e23e57077159ed4f24370af8da4c16,223.104.160.72,"Mozilla/5.0 (Windows NT 10.0; Win64; x64) AppleWebKit/537.36 (KHTML, like Gecko) Chrome/120.0.0.0 Safari/537.36 Edg/120.0.0.0",WebKit,Edge,120.0.0.0,Windows,10,null,"zh-CN,zh;q=0.9,en;q=0.8,en-GB;q=0.7,en-US;q=0.6","""","""","""","""","""","""",+,null,"""",""""
"""",4959,html-button-response,25,239382,0.0-6.0-1.2,135,1,2023/12/21 8:34,88e23e57077159ed4f24370af8da4c16,223.104.160.72,"Mozilla/5.0 (Windows NT 10.0; Win64; x64) AppleWebKit/537.36 (KHTML, like Gecko) Chrome/120.0.0.0 Safari/537.36 Edg/120.0.0.0",WebKit,Edge,120.0.0.0,Windows,10,null,"zh-CN,zh;q=0.9,en;q=0.8,en-GB;q=0.7,en-US;q=0.6","""","""","""","""","""","""",<img src='pma-9.png'>\n                              <p class='attract'>该异性对您来说吸引力评分是</p>\n                              <p class='tips'>(1代表吸引力非常小，9代表吸引力非常大)</p>,6,pre_test,pma-9.png
"""",1607,instructions,26,240989,0.0-6.0-2.2,135,1,2023/12/21 8:34,88e23e57077159ed4f24370af8da4c16,223.104.160.72,"Mozilla/5.0 (Windows NT 10.0; Win64; x64) AppleWebKit/537.36 (KHTML, like Gecko) Chrome/120.0.0.0 Safari/537.36 Edg/120.0.0.0",WebKit,Edge,120.0.0.0,Windows,10,null,"zh-CN,zh;q=0.9,en;q=0.8,en-GB;q=0.7,en-US;q=0.6","""","""","""","""","""","[{""page_index"":0,""viewing_time"":1606}]","""","""",素不相识,""""
"""",3279,html-button-response,27,244269,0.0-6.0-3.2,135,1,2023/12/21 8:34,88e23e57077159ed4f24370af8da4c16,223.104.160.72,"Mozilla/5.0 (Windows NT 10.0; Win64; x64) AppleWebKit/537.36 (KHTML, like Gecko) Chrome/120.0.0.0 Safari/537.36 Edg/120.0.0.0",WebKit,Edge,120.0.0.0,Windows,10,null,"zh-CN,zh;q=0.9,en;q=0.8,en-GB;q=0.7,en-US;q=0.6","""","""","""","""","""","""",<p class='attract'>以下有两个圆圈，一个代表你自己，一个代表刚刚你想象中的她，重叠部分代表你们的亲密程度，\n                              重叠部分越大代表你们之间越亲密，请选择以下哪个可以代表你们之间的亲密度</p>\n                              <img src='distance.png' width=85%>,0,distance,""""
"""",2431,instructions,28,246701,0.0-6.0-4.2,135,1,2023/12/21 8:34,88e23e57077159ed4f24370af8da4c16,223.104.160.72,"Mozilla/5.0 (Windows NT 10.0; Win64; x64) AppleWebKit/537.36 (KHTML, like Gecko) Chrome/120.0.0.0 Safari/537.36 Edg/120.0.0.0",WebKit,Edge,120.0.0.0,Windows,10,null,"zh-CN,zh;q=0.9,en;q=0.8,en-GB;q=0.7,en-US;q=0.6","""","""","""","""","""","[{""page_index"":0,""viewing_time"":2431}]","""","""","""",""""
"""",967,html-button-response,29,247669,0.0-6.0-5.2,135,1,2023/12/21 8:34,88e23e57077159ed4f24370af8da4c16,223.104.160.72,"Mozilla/5.0 (Windows NT 10.0; Win64; x64) AppleWebKit/537.36 (KHTML, like Gecko) Chrome/120.0.0.0 Safari/537.36 Edg/120.0.0.0",WebKit,Edge,120.0.0.0,Windows,10,null,"zh-CN,zh;q=0.9,en;q=0.8,en-GB;q=0.7,en-US;q=0.6","""","""","""","""","""","""",<img src='pma-9.png'>\n                          <p class='attract'>该异性对您来说吸引力评分是</p>\n                          <p class='tips'>(1代表吸引力非常小，9代表吸引力非常大)</p>,7,post_test,pma-9.png
"""",null,html-keyboard-response,30,248179,0.0-6.0-0.3,135,1,2023/12/21 8:34,88e23e57077159ed4f24370af8da4c16,223.104.160.72,"Mozilla/5.0 (Windows NT 10.0; Win64; x64) AppleWebKit/537.36 (KHTML, like Gecko) Chrome/120.0.0.0 Safari/537.36 Edg/120.0.0.0",WebKit,Edge,120.0.0.0,Windows,10,null,"zh-CN,zh;q=0.9,en;q=0.8,en-GB;q=0.7,en-US;q=0.6","""","""","""","""","""","""",+,null,"""",""""
"""",6840,html-button-response,31,255021,0.0-6.0-1.3,135,1,2023/12/21 8:34,88e23e57077159ed4f24370af8da4c16,223.104.160.72,"Mozilla/5.0 (Windows NT 10.0; Win64; x64) AppleWebKit/537.36 (KHTML, like Gecko) Chrome/120.0.0.0 Safari/537.36 Edg/120.0.0.0",WebKit,Edge,120.0.0.0,Windows,10,null,"zh-CN,zh;q=0.9,en;q=0.8,en-GB;q=0.7,en-US;q=0.6","""","""","""","""","""","""",<img src='pmj-12.png'>\n                              <p class='attract'>该异性对您来说吸引力评分是</p>\n                              <p class='tips'>(1代表吸引力非常小，9代表吸引力非常大)</p>,3,pre_test,pmj-12.png
"""",1927,instructions,32,256949,0.0-6.0-2.3,135,1,2023/12/21 8:34,88e23e57077159ed4f24370af8da4c16,223.104.160.72,"Mozilla/5.0 (Windows NT 10.0; Win64; x64) AppleWebKit/537.36 (KHTML, like Gecko) Chrome/120.0.0.0 Safari/537.36 Edg/120.0.0.0",WebKit,Edge,120.0.0.0,Windows,10,null,"zh-CN,zh;q=0.9,en;q=0.8,en-GB;q=0.7,en-US;q=0.6","""","""","""","""","""","[{""page_index"":0,""viewing_time"":1927}]","""","""",闺蜜,""""
"""",2487,html-button-response,33,259437,0.0-6.0-3.3,135,1,2023/12/21 8:34,88e23e57077159ed4f24370af8da4c16,223.104.160.72,"Mozilla/5.0 (Windows NT 10.0; Win64; x64) AppleWebKit/537.36 (KHTML, like Gecko) Chrome/120.0.0.0 Safari/537.36 Edg/120.0.0.0",WebKit,Edge,120.0.0.0,Windows,10,null,"zh-CN,zh;q=0.9,en;q=0.8,en-GB;q=0.7,en-US;q=0.6","""","""","""","""","""","""",<p class='attract'>以下有两个圆圈，一个代表你自己，一个代表刚刚你想象中的她，重叠部分代表你们的亲密程度，\n                              重叠部分越大代表你们之间越亲密，请选择以下哪个可以代表你们之间的亲密度</p>\n                              <img src='distance.png' width=85%>,3,distance,""""
"""",3943,instructions,34,263381,0.0-6.0-4.3,135,1,2023/12/21 8:34,88e23e57077159ed4f24370af8da4c16,223.104.160.72,"Mozilla/5.0 (Windows NT 10.0; Win64; x64) AppleWebKit/537.36 (KHTML, like Gecko) Chrome/120.0.0.0 Safari/537.36 Edg/120.0.0.0",WebKit,Edge,120.0.0.0,Windows,10,null,"zh-CN,zh;q=0.9,en;q=0.8,en-GB;q=0.7,en-US;q=0.6","""","""","""","""","""","[{""page_index"":0,""viewing_time"":3943}]","""","""","""",""""
"""",2863,html-button-response,35,266245,0.0-6.0-5.3,135,1,2023/12/21 8:34,88e23e57077159ed4f24370af8da4c16,223.104.160.72,"Mozilla/5.0 (Windows NT 10.0; Win64; x64) AppleWebKit/537.36 (KHTML, like Gecko) Chrome/120.0.0.0 Safari/537.36 Edg/120.0.0.0",WebKit,Edge,120.0.0.0,Windows,10,null,"zh-CN,zh;q=0.9,en;q=0.8,en-GB;q=0.7,en-US;q=0.6","""","""","""","""","""","""",<img src='pmj-12.png'>\n                          <p class='attract'>该异性对您来说吸引力评分是</p>\n                          <p class='tips'>(1代表吸引力非常小，9代表吸引力非常大)</p>,2,post_test,pmj-12.png
"""",null,html-keyboard-response,36,266749,0.0-6.0-0.4,135,1,2023/12/21 8:34,88e23e57077159ed4f24370af8da4c16,223.104.160.72,"Mozilla/5.0 (Windows NT 10.0; Win64; x64) AppleWebKit/537.36 (KHTML, like Gecko) Chrome/120.0.0.0 Safari/537.36 Edg/120.0.0.0",WebKit,Edge,120.0.0.0,Windows,10,null,"zh-CN,zh;q=0.9,en;q=0.8,en-GB;q=0.7,en-US;q=0.6","""","""","""","""","""","""",+,null,"""",""""
"""",2599,html-button-response,37,269349,0.0-6.0-1.4,135,1,2023/12/21 8:34,88e23e57077159ed4f24370af8da4c16,223.104.160.72,"Mozilla/5.0 (Windows NT 10.0; Win64; x64) AppleWebKit/537.36 (KHTML, like Gecko) Chrome/120.0.0.0 Safari/537.36 Edg/120.0.0.0",WebKit,Edge,120.0.0.0,Windows,10,null,"zh-CN,zh;q=0.9,en;q=0.8,en-GB;q=0.7,en-US;q=0.6","""","""","""","""","""","""",<img src='lma-1.jpg'>\n                              <p class='attract'>该异性对您来说吸引力评分是</p>\n                              <p class='tips'>(1代表吸引力非常小，9代表吸引力非常大)</p>,0,pre_test,lma-1.jpg
"""",1479,instructions,38,270829,0.0-6.0-2.4,135,1,2023/12/21 8:34,88e23e57077159ed4f24370af8da4c16,223.104.160.72,"Mozilla/5.0 (Windows NT 10.0; Win64; x64) AppleWebKit/537.36 (KHTML, like Gecko) Chrome/120.0.0.0 Safari/537.36 Edg/120.0.0.0",WebKit,Edge,120.0.0.0,Windows,10,null,"zh-CN,zh;q=0.9,en;q=0.8,en-GB;q=0.7,en-US;q=0.6","""","""","""","""","""","[{""page_index"":0,""viewing_time"":1479}]","""","""",闺蜜,""""
"""",5022,html-button-response,39,275853,0.0-6.0-3.4,135,1,2023/12/21 8:34,88e23e57077159ed4f24370af8da4c16,223.104.160.72,"Mozilla/5.0 (Windows NT 10.0; Win64; x64) AppleWebKit/537.36 (KHTML, like Gecko) Chrome/120.0.0.0 Safari/537.36 Edg/120.0.0.0",WebKit,Edge,120.0.0.0,Windows,10,null,"zh-CN,zh;q=0.9,en;q=0.8,en-GB;q=0.7,en-US;q=0.6","""","""","""","""","""","""",<p class='attract'>以下有两个圆圈，一个代表你自己，一个代表刚刚你想象中的她，重叠部分代表你们的亲密程度，\n                              重叠部分越大代表你们之间越亲密，请选择以下哪个可以代表你们之间的亲密度</p>\n                              <img src='distance.png' width=85%>,3,distance,""""
"""",4494,instructions,40,280349,0.0-6.0-4.4,135,1,2023/12/21 8:34,88e23e57077159ed4f24370af8da4c16,223.104.160.72,"Mozilla/5.0 (Windows NT 10.0; Win64; x64) AppleWebKit/537.36 (KHTML, like Gecko) Chrome/120.0.0.0 Safari/537.36 Edg/120.0.0.0",WebKit,Edge,120.0.0.0,Windows,10,null,"zh-CN,zh;q=0.9,en;q=0.8,en-GB;q=0.7,en-US;q=0.6","""","""","""","""","""","[{""page_index"":0,""viewing_time"":4494}]","""","""","""",""""
"""",927,html-button-response,41,281277,0.0-6.0-5.4,135,1,2023/12/21 8:34,88e23e57077159ed4f24370af8da4c16,223.104.160.72,"Mozilla/5.0 (Windows NT 10.0; Win64; x64) AppleWebKit/537.36 (KHTML, like Gecko) Chrome/120.0.0.0 Safari/537.36 Edg/120.0.0.0",WebKit,Edge,120.0.0.0,Windows,10,null,"zh-CN,zh;q=0.9,en;q=0.8,en-GB;q=0.7,en-US;q=0.6","""","""","""","""","""","""",<img src='lma-1.jpg'>\n                          <p class='attract'>该异性对您来说吸引力评分是</p>\n                          <p class='tips'>(1代表吸引力非常小，9代表吸引力非常大)</p>,1,post_test,lma-1.jpg
"""",null,html-keyboard-response,42,281785,0.0-6.0-0.5,135,1,2023/12/21 8:34,88e23e57077159ed4f24370af8da4c16,223.104.160.72,"Mozilla/5.0 (Windows NT 10.0; Win64; x64) AppleWebKit/537.36 (KHTML, like Gecko) Chrome/120.0.0.0 Safari/537.36 Edg/120.0.0.0",WebKit,Edge,120.0.0.0,Windows,10,null,"zh-CN,zh;q=0.9,en;q=0.8,en-GB;q=0.7,en-US;q=0.6","""","""","""","""","""","""",+,null,"""",""""
"""",11386,html-button-response,43,293173,0.0-6.0-1.5,135,1,2023/12/21 8:34,88e23e57077159ed4f24370af8da4c16,223.104.160.72,"Mozilla/5.0 (Windows NT 10.0; Win64; x64) AppleWebKit/537.36 (KHTML, like Gecko) Chrome/120.0.0.0 Safari/537.36 Edg/120.0.0.0",WebKit,Edge,120.0.0.0,Windows,10,null,"zh-CN,zh;q=0.9,en;q=0.8,en-GB;q=0.7,en-US;q=0.6","""","""","""","""","""","""",<img src='lma-2.jpg'>\n                              <p class='attract'>该异性对您来说吸引力评分是</p>\n                              <p class='tips'>(1代表吸引力非常小，9代表吸引力非常大)</p>,1,pre_test,lma-2.jpg
"""",4663,instructions,44,297837,0.0-6.0-2.5,135,1,2023/12/21 8:34,88e23e57077159ed4f24370af8da4c16,223.104.160.72,"Mozilla/5.0 (Windows NT 10.0; Win64; x64) AppleWebKit/537.36 (KHTML, like Gecko) Chrome/120.0.0.0 Safari/537.36 Edg/120.0.0.0",WebKit,Edge,120.0.0.0,Windows,10,null,"zh-CN,zh;q=0.9,en;q=0.8,en-GB;q=0.7,en-US;q=0.6","""","""","""","""","""","[{""page_index"":0,""viewing_time"":4663}]","""","""",闺蜜,""""
"""",6871,html-button-response,45,304709,0.0-6.0-3.5,135,1,2023/12/21 8:34,88e23e57077159ed4f24370af8da4c16,223.104.160.72,"Mozilla/5.0 (Windows NT 10.0; Win64; x64) AppleWebKit/537.36 (KHTML, like Gecko) Chrome/120.0.0.0 Safari/537.36 Edg/120.0.0.0",WebKit,Edge,120.0.0.0,Windows,10,null,"zh-CN,zh;q=0.9,en;q=0.8,en-GB;q=0.7,en-US;q=0.6","""","""","""","""","""","""",<p class='attract'>以下有两个圆圈，一个代表你自己，一个代表刚刚你想象中的她，重叠部分代表你们的亲密程度，\n                              重叠部分越大代表你们之间越亲密，请选择以下哪个可以代表你们之间的亲密度</p>\n                              <img src='distance.png' width=85%>,4,distance,""""
"""",2406,instructions,46,307117,0.0-6.0-4.5,135,1,2023/12/21 8:34,88e23e57077159ed4f24370af8da4c16,223.104.160.72,"Mozilla/5.0 (Windows NT 10.0; Win64; x64) AppleWebKit/537.36 (KHTML, like Gecko) Chrome/120.0.0.0 Safari/537.36 Edg/120.0.0.0",WebKit,Edge,120.0.0.0,Windows,10,null,"zh-CN,zh;q=0.9,en;q=0.8,en-GB;q=0.7,en-US;q=0.6","""","""","""","""","""","[{""page_index"":0,""viewing_time"":2406}]","""","""","""",""""
"""",863,html-button-response,47,307981,0.0-6.0-5.5,135,1,2023/12/21 8:34,88e23e57077159ed4f24370af8da4c16,223.104.160.72,"Mozilla/5.0 (Windows NT 10.0; Win64; x64) AppleWebKit/537.36 (KHTML, like Gecko) Chrome/120.0.0.0 Safari/537.36 Edg/120.0.0.0",WebKit,Edge,120.0.0.0,Windows,10,null,"zh-CN,zh;q=0.9,en;q=0.8,en-GB;q=0.7,en-US;q=0.6","""","""","""","""","""","""",<img src='lma-2.jpg'>\n                          <p class='attract'>该异性对您来说吸引力评分是</p>\n                          <p class='tips'>(1代表吸引力非常小，9代表吸引力非常大)</p>,3,post_test,lma-2.jpg
"""",null,html-keyboard-response,48,308496,0.0-6.0-0.6,135,1,2023/12/21 8:34,88e23e57077159ed4f24370af8da4c16,223.104.160.72,"Mozilla/5.0 (Windows NT 10.0; Win64; x64) AppleWebKit/537.36 (KHTML, like Gecko) Chrome/120.0.0.0 Safari/537.36 Edg/120.0.0.0",WebKit,Edge,120.0.0.0,Windows,10,null,"zh-CN,zh;q=0.9,en;q=0.8,en-GB;q=0.7,en-US;q=0.6","""","""","""","""","""","""",+,null,"""",""""
"""",5524,html-button-response,49,314021,0.0-6.0-1.6,135,1,2023/12/21 8:34,88e23e57077159ed4f24370af8da4c16,223.104.160.72,"Mozilla/5.0 (Windows NT 10.0; Win64; x64) AppleWebKit/537.36 (KHTML, like Gecko) Chrome/120.0.0.0 Safari/537.36 Edg/120.0.0.0",WebKit,Edge,120.0.0.0,Windows,10,null,"zh-CN,zh;q=0.9,en;q=0.8,en-GB;q=0.7,en-US;q=0.6","""","""","""","""","""","""",<img src='pmj-12.png'>\n                              <p class='attract'>该异性对您来说吸引力评分是</p>\n                              <p class='tips'>(1代表吸引力非常小，9代表吸引力非常大)</p>,4,pre_test,pmj-12.png
"""",1311,instructions,50,315333,0.0-6.0-2.6,135,1,2023/12/21 8:34,88e23e57077159ed4f24370af8da4c16,223.104.160.72,"Mozilla/5.0 (Windows NT 10.0; Win64; x64) AppleWebKit/537.36 (KHTML, like Gecko) Chrome/120.0.0.0 Safari/537.36 Edg/120.0.0.0",WebKit,Edge,120.0.0.0,Windows,10,null,"zh-CN,zh;q=0.9,en;q=0.8,en-GB;q=0.7,en-US;q=0.6","""","""","""","""","""","[{""page_index"":0,""viewing_time"":1311}]","""","""",素不相识,""""
"""",1590,html-button-response,51,316925,0.0-6.0-3.6,135,1,2023/12/21 8:34,88e23e57077159ed4f24370af8da4c16,223.104.160.72,"Mozilla/5.0 (Windows NT 10.0; Win64; x64) AppleWebKit/537.36 (KHTML, like Gecko) Chrome/120.0.0.0 Safari/537.36 Edg/120.0.0.0",WebKit,Edge,120.0.0.0,Windows,10,null,"zh-CN,zh;q=0.9,en;q=0.8,en-GB;q=0.7,en-US;q=0.6","""","""","""","""","""","""",<p class='attract'>以下有两个圆圈，一个代表你自己，一个代表刚刚你想象中的她，重叠部分代表你们的亲密程度，\n                              重叠部分越大代表你们之间越亲密，请选择以下哪个可以代表你们之间的亲密度</p>\n                              <img src='distance.png' width=85%>,0,distance,""""
"""",3367,instructions,52,320293,0.0-6.0-4.6,135,1,2023/12/21 8:34,88e23e57077159ed4f24370af8da4c16,223.104.160.72,"Mozilla/5.0 (Windows NT 10.0; Win64; x64) AppleWebKit/537.36 (KHTML, like Gecko) Chrome/120.0.0.0 Safari/537.36 Edg/120.0.0.0",WebKit,Edge,120.0.0.0,Windows,10,null,"zh-CN,zh;q=0.9,en;q=0.8,en-GB;q=0.7,en-US;q=0.6","""","""","""","""","""","[{""page_index"":0,""viewing_time"":3367}]","""","""","""",""""
"""",3119,html-button-response,53,323413,0.0-6.0-5.6,135,1,2023/12/21 8:34,88e23e57077159ed4f24370af8da4c16,223.104.160.72,"Mozilla/5.0 (Windows NT 10.0; Win64; x64) AppleWebKit/537.36 (KHTML, like Gecko) Chrome/120.0.0.0 Safari/537.36 Edg/120.0.0.0",WebKit,Edge,120.0.0.0,Windows,10,null,"zh-CN,zh;q=0.9,en;q=0.8,en-GB;q=0.7,en-US;q=0.6","""","""","""","""","""","""",<img src='pmj-12.png'>\n                          <p class='attract'>该异性对您来说吸引力评分是</p>\n                          <p class='tips'>(1代表吸引力非常小，9代表吸引力非常大)</p>,2,post_test,pmj-12.png
"""",null,html-keyboard-response,54,323928,0.0-6.0-0.7,135,1,2023/12/21 8:34,88e23e57077159ed4f24370af8da4c16,223.104.160.72,"Mozilla/5.0 (Windows NT 10.0; Win64; x64) AppleWebKit/537.36 (KHTML, like Gecko) Chrome/120.0.0.0 Safari/537.36 Edg/120.0.0.0",WebKit,Edge,120.0.0.0,Windows,10,null,"zh-CN,zh;q=0.9,en;q=0.8,en-GB;q=0.7,en-US;q=0.6","""","""","""","""","""","""",+,null,"""",""""
"""",12107,html-button-response,55,336037,0.0-6.0-1.7,135,1,2023/12/21 8:34,88e23e57077159ed4f24370af8da4c16,223.104.160.72,"Mozilla/5.0 (Windows NT 10.0; Win64; x64) AppleWebKit/537.36 (KHTML, like Gecko) Chrome/120.0.0.0 Safari/537.36 Edg/120.0.0.0",WebKit,Edge,120.0.0.0,Windows,10,null,"zh-CN,zh;q=0.9,en;q=0.8,en-GB;q=0.7,en-US;q=0.6","""","""","""","""","""","""",<img src='lmj-3.png'>\n                              <p class='attract'>该异性对您来说吸引力评分是</p>\n                              <p class='tips'>(1代表吸引力非常小，9代表吸引力非常大)</p>,1,pre_test,lmj-3.png
"""",1407,instructions,56,337445,0.0-6.0-2.7,135,1,2023/12/21 8:34,88e23e57077159ed4f24370af8da4c16,223.104.160.72,"Mozilla/5.0 (Windows NT 10.0; Win64; x64) AppleWebKit/537.36 (KHTML, like Gecko) Chrome/120.0.0.0 Safari/537.36 Edg/120.0.0.0",WebKit,Edge,120.0.0.0,Windows,10,null,"zh-CN,zh;q=0.9,en;q=0.8,en-GB;q=0.7,en-US;q=0.6","""","""","""","""","""","[{""page_index"":0,""viewing_time"":1406}]","""","""",素不相识,""""
"""",2959,html-button-response,57,340405,0.0-6.0-3.7,135,1,2023/12/21 8:34,88e23e57077159ed4f24370af8da4c16,223.104.160.72,"Mozilla/5.0 (Windows NT 10.0; Win64; x64) AppleWebKit/537.36 (KHTML, like Gecko) Chrome/120.0.0.0 Safari/537.36 Edg/120.0.0.0",WebKit,Edge,120.0.0.0,Windows,10,null,"zh-CN,zh;q=0.9,en;q=0.8,en-GB;q=0.7,en-US;q=0.6","""","""","""","""","""","""",<p class='attract'>以下有两个圆圈，一个代表你自己，一个代表刚刚你想象中的她，重叠部分代表你们的亲密程度，\n                              重叠部分越大代表你们之间越亲密，请选择以下哪个可以代表你们之间的亲密度</p>\n                              <img src='distance.png' width=85%>,0,distance,""""
"""",1551,instructions,58,341957,0.0-6.0-4.7,135,1,2023/12/21 8:34,88e23e57077159ed4f24370af8da4c16,223.104.160.72,"Mozilla/5.0 (Windows NT 10.0; Win64; x64) AppleWebKit/537.36 (KHTML, like Gecko) Chrome/120.0.0.0 Safari/537.36 Edg/120.0.0.0",WebKit,Edge,120.0.0.0,Windows,10,null,"zh-CN,zh;q=0.9,en;q=0.8,en-GB;q=0.7,en-US;q=0.6","""","""","""","""","""","[{""page_index"":0,""viewing_time"":1551}]","""","""","""",""""
"""",4366,html-button-response,59,346325,0.0-6.0-5.7,135,1,2023/12/21 8:34,88e23e57077159ed4f24370af8da4c16,223.104.160.72,"Mozilla/5.0 (Windows NT 10.0; Win64; x64) AppleWebKit/537.36 (KHTML, like Gecko) Chrome/120.0.0.0 Safari/537.36 Edg/120.0.0.0",WebKit,Edge,120.0.0.0,Windows,10,null,"zh-CN,zh;q=0.9,en;q=0.8,en-GB;q=0.7,en-US;q=0.6","""","""","""","""","""","""",<img src='lmj-3.png'>\n                          <p class='attract'>该异性对您来说吸引力评分是</p>\n                          <p class='tips'>(1代表吸引力非常小，9代表吸引力非常大)</p>,0,post_test,lmj-3.png
"""",null,html-keyboard-response,60,346829,0.0-6.0-0.8,135,1,2023/12/21 8:34,88e23e57077159ed4f24370af8da4c16,223.104.160.72,"Mozilla/5.0 (Windows NT 10.0; Win64; x64) AppleWebKit/537.36 (KHTML, like Gecko) Chrome/120.0.0.0 Safari/537.36 Edg/120.0.0.0",WebKit,Edge,120.0.0.0,Windows,10,null,"zh-CN,zh;q=0.9,en;q=0.8,en-GB;q=0.7,en-US;q=0.6","""","""","""","""","""","""",+,null,"""",""""
"""",3927,html-button-response,61,350757,0.0-6.0-1.8,135,1,2023/12/21 8:34,88e23e57077159ed4f24370af8da4c16,223.104.160.72,"Mozilla/5.0 (Windows NT 10.0; Win64; x64) AppleWebKit/537.36 (KHTML, like Gecko) Chrome/120.0.0.0 Safari/537.36 Edg/120.0.0.0",WebKit,Edge,120.0.0.0,Windows,10,null,"zh-CN,zh;q=0.9,en;q=0.8,en-GB;q=0.7,en-US;q=0.6","""","""","""","""","""","""",<img src='nma-6.png'>\n                              <p class='attract'>该异性对您来说吸引力评分是</p>\n                              <p class='tips'>(1代表吸引力非常小，9代表吸引力非常大)</p>,1,pre_test,nma-6.png
"""",1159,instructions,62,351917,0.0-6.0-2.8,135,1,2023/12/21 8:34,88e23e57077159ed4f24370af8da4c16,223.104.160.72,"Mozilla/5.0 (Windows NT 10.0; Win64; x64) AppleWebKit/537.36 (KHTML, like Gecko) Chrome/120.0.0.0 Safari/537.36 Edg/120.0.0.0",WebKit,Edge,120.0.0.0,Windows,10,null,"zh-CN,zh;q=0.9,en;q=0.8,en-GB;q=0.7,en-US;q=0.6","""","""","""","""","""","[{""page_index"":0,""viewing_time"":1158}]","""","""",素不相识,""""
"""",4670,html-button-response,63,356589,0.0-6.0-3.8,135,1,2023/12/21 8:34,88e23e57077159ed4f24370af8da4c16,223.104.160.72,"Mozilla/5.0 (Windows NT 10.0; Win64; x64) AppleWebKit/537.36 (KHTML, like Gecko) Chrome/120.0.0.0 Safari/537.36 Edg/120.0.0.0",WebKit,Edge,120.0.0.0,Windows,10,null,"zh-CN,zh;q=0.9,en;q=0.8,en-GB;q=0.7,en-US;q=0.6","""","""","""","""","""","""",<p class='attract'>以下有两个圆圈，一个代表你自己，一个代表刚刚你想象中的她，重叠部分代表你们的亲密程度，\n                              重叠部分越大代表你们之间越亲密，请选择以下哪个可以代表你们之间的亲密度</p>\n                              <img src='distance.png' width=85%>,0,distance,""""
"""",1718,instructions,64,358309,0.0-6.0-4.8,135,1,2023/12/21 8:34,88e23e57077159ed4f24370af8da4c16,223.104.160.72,"Mozilla/5.0 (Windows NT 10.0; Win64; x64) AppleWebKit/537.36 (KHTML, like Gecko) Chrome/120.0.0.0 Safari/537.36 Edg/120.0.0.0",WebKit,Edge,120.0.0.0,Windows,10,null,"zh-CN,zh;q=0.9,en;q=0.8,en-GB;q=0.7,en-US;q=0.6","""","""","""","""","""","[{""page_index"":0,""viewing_time"":1718}]","""","""","""",""""
"""",2599,html-button-response,65,360909,0.0-6.0-5.8,135,1,2023/12/21 8:34,88e23e57077159ed4f24370af8da4c16,223.104.160.72,"Mozilla/5.0 (Windows NT 10.0; Win64; x64) AppleWebKit/537.36 (KHTML, like Gecko) Chrome/120.0.0.0 Safari/537.36 Edg/120.0.0.0",WebKit,Edge,120.0.0.0,Windows,10,null,"zh-CN,zh;q=0.9,en;q=0.8,en-GB;q=0.7,en-US;q=0.6","""","""","""","""","""","""",<img src='nma-6.png'>\n                          <p class='attract'>该异性对您来说吸引力评分是</p>\n                          <p class='tips'>(1代表吸引力非常小，9代表吸引力非常大)</p>,3,post_test,nma-6.png
"""",null,html-keyboard-response,66,361412,0.0-6.0-0.9,135,1,2023/12/21 8:34,88e23e57077159ed4f24370af8da4c16,223.104.160.72,"Mozilla/5.0 (Windows NT 10.0; Win64; x64) AppleWebKit/537.36 (KHTML, like Gecko) Chrome/120.0.0.0 Safari/537.36 Edg/120.0.0.0",WebKit,Edge,120.0.0.0,Windows,10,null,"zh-CN,zh;q=0.9,en;q=0.8,en-GB;q=0.7,en-US;q=0.6","""","""","""","""","""","""",+,null,"""",""""
"""",2103,html-button-response,67,363517,0.0-6.0-1.9,135,1,2023/12/21 8:34,88e23e57077159ed4f24370af8da4c16,223.104.160.72,"Mozilla/5.0 (Windows NT 10.0; Win64; x64) AppleWebKit/537.36 (KHTML, like Gecko) Chrome/120.0.0.0 Safari/537.36 Edg/120.0.0.0",WebKit,Edge,120.0.0.0,Windows,10,null,"zh-CN,zh;q=0.9,en;q=0.8,en-GB;q=0.7,en-US;q=0.6","""","""","""","""","""","""",<img src='lmj-4.jpg'>\n                              <p class='attract'>该异性对您来说吸引力评分是</p>\n                              <p class='tips'>(1代表吸引力非常小，9代表吸引力非常大)</p>,0,pre_test,lmj-4.jpg
"""",1159,instructions,68,364677,0.0-6.0-2.9,135,1,2023/12/21 8:34,88e23e57077159ed4f24370af8da4c16,223.104.160.72,"Mozilla/5.0 (Windows NT 10.0; Win64; x64) AppleWebKit/537.36 (KHTML, like Gecko) Chrome/120.0.0.0 Safari/537.36 Edg/120.0.0.0",WebKit,Edge,120.0.0.0,Windows,10,null,"zh-CN,zh;q=0.9,en;q=0.8,en-GB;q=0.7,en-US;q=0.6","""","""","""","""","""","[{""page_index"":0,""viewing_time"":1159}]","""","""",素不相识,""""
"""",1079,html-button-response,69,365757,0.0-6.0-3.9,135,1,2023/12/21 8:34,88e23e57077159ed4f24370af8da4c16,223.104.160.72,"Mozilla/5.0 (Windows NT 10.0; Win64; x64) AppleWebKit/537.36 (KHTML, like Gecko) Chrome/120.0.0.0 Safari/537.36 Edg/120.0.0.0",WebKit,Edge,120.0.0.0,Windows,10,null,"zh-CN,zh;q=0.9,en;q=0.8,en-GB;q=0.7,en-US;q=0.6","""","""","""","""","""","""",<p class='attract'>以下有两个圆圈，一个代表你自己，一个代表刚刚你想象中的她，重叠部分代表你们的亲密程度，\n                              重叠部分越大代表你们之间越亲密，请选择以下哪个可以代表你们之间的亲密度</p>\n                              <img src='distance.png' width=85%>,0,distance,""""
"""",1879,instructions,70,367637,0.0-6.0-4.9,135,1,2023/12/21 8:34,88e23e57077159ed4f24370af8da4c16,223.104.160.72,"Mozilla/5.0 (Windows NT 10.0; Win64; x64) AppleWebKit/537.36 (KHTML, like Gecko) Chrome/120.0.0.0 Safari/537.36 Edg/120.0.0.0",WebKit,Edge,120.0.0.0,Windows,10,null,"zh-CN,zh;q=0.9,en;q=0.8,en-GB;q=0.7,en-US;q=0.6","""","""","""","""","""","[{""page_index"":0,""viewing_time"":1879}]","""","""","""",""""
"""",758,html-button-response,71,368397,0.0-6.0-5.9,135,1,2023/12/21 8:34,88e23e57077159ed4f24370af8da4c16,223.104.160.72,"Mozilla/5.0 (Windows NT 10.0; Win64; x64) AppleWebKit/537.36 (KHTML, like Gecko) Chrome/120.0.0.0 Safari/537.36 Edg/120.0.0.0",WebKit,Edge,120.0.0.0,Windows,10,null,"zh-CN,zh;q=0.9,en;q=0.8,en-GB;q=0.7,en-US;q=0.6","""","""","""","""","""","""",<img src='lmj-4.jpg'>\n                          <p class='attract'>该异性对您来说吸引力评分是</p>\n                          <p class='tips'>(1代表吸引力非常小，9代表吸引力非常大)</p>,0,post_test,lmj-4.jpg
"""",null,html-keyboard-response,72,368899,0.0-6.0-0.10,135,1,2023/12/21 8:34,88e23e57077159ed4f24370af8da4c16,223.104.160.72,"Mozilla/5.0 (Windows NT 10.0; Win64; x64) AppleWebKit/537.36 (KHTML, like Gecko) Chrome/120.0.0.0 Safari/537.36 Edg/120.0.0.0",WebKit,Edge,120.0.0.0,Windows,10,null,"zh-CN,zh;q=0.9,en;q=0.8,en-GB;q=0.7,en-US;q=0.6","""","""","""","""","""","""",+,null,"""",""""
"""",5520,html-button-response,73,374421,0.0-6.0-1.10,135,1,2023/12/21 8:34,88e23e57077159ed4f24370af8da4c16,223.104.160.72,"Mozilla/5.0 (Windows NT 10.0; Win64; x64) AppleWebKit/537.36 (KHTML, like Gecko) Chrome/120.0.0.0 Safari/537.36 Edg/120.0.0.0",WebKit,Edge,120.0.0.0,Windows,10,null,"zh-CN,zh;q=0.9,en;q=0.8,en-GB;q=0.7,en-US;q=0.6","""","""","""","""","""","""",<img src='pma-9.png'>\n                              <p class='attract'>该异性对您来说吸引力评分是</p>\n                              <p class='tips'>(1代表吸引力非常小，9代表吸引力非常大)</p>,5,pre_test,pma-9.png
"""",1382,instructions,74,375805,0.0-6.0-2.10,135,1,2023/12/21 8:34,88e23e57077159ed4f24370af8da4c16,223.104.160.72,"Mozilla/5.0 (Windows NT 10.0; Win64; x64) AppleWebKit/537.36 (KHTML, like Gecko) Chrome/120.0.0.0 Safari/537.36 Edg/120.0.0.0",WebKit,Edge,120.0.0.0,Windows,10,null,"zh-CN,zh;q=0.9,en;q=0.8,en-GB;q=0.7,en-US;q=0.6","""","""","""","""","""","[{""page_index"":0,""viewing_time"":1382}]","""","""",闺蜜,""""
"""",7943,html-button-response,75,383749,0.0-6.0-3.10,135,1,2023/12/21 8:34,88e23e57077159ed4f24370af8da4c16,223.104.160.72,"Mozilla/5.0 (Windows NT 10.0; Win64; x64) AppleWebKit/537.36 (KHTML, like Gecko) Chrome/120.0.0.0 Safari/537.36 Edg/120.0.0.0",WebKit,Edge,120.0.0.0,Windows,10,null,"zh-CN,zh;q=0.9,en;q=0.8,en-GB;q=0.7,en-US;q=0.6","""","""","""","""","""","""",<p class='attract'>以下有两个圆圈，一个代表你自己，一个代表刚刚你想象中的她，重叠部分代表你们的亲密程度，\n                              重叠部分越大代表你们之间越亲密，请选择以下哪个可以代表你们之间的亲密度</p>\n                              <img src='distance.png' width=85%>,3,distance,""""
"""",1398,instructions,76,385149,0.0-6.0-4.10,135,1,2023/12/21 8:34,88e23e57077159ed4f24370af8da4c16,223.104.160.72,"Mozilla/5.0 (Windows NT 10.0; Win64; x64) AppleWebKit/537.36 (KHTML, like Gecko) Chrome/120.0.0.0 Safari/537.36 Edg/120.0.0.0",WebKit,Edge,120.0.0.0,Windows,10,null,"zh-CN,zh;q=0.9,en;q=0.8,en-GB;q=0.7,en-US;q=0.6","""","""","""","""","""","[{""page_index"":0,""viewing_time"":1398}]","""","""","""",""""
"""",3422,html-button-response,77,388573,0.0-6.0-5.10,135,1,2023/12/21 8:34,88e23e57077159ed4f24370af8da4c16,223.104.160.72,"Mozilla/5.0 (Windows NT 10.0; Win64; x64) AppleWebKit/537.36 (KHTML, like Gecko) Chrome/120.0.0.0 Safari/537.36 Edg/120.0.0.0",WebKit,Edge,120.0.0.0,Windows,10,null,"zh-CN,zh;q=0.9,en;q=0.8,en-GB;q=0.7,en-US;q=0.6","""","""","""","""","""","""",<img src='pma-9.png'>\n                          <p class='attract'>该异性对您来说吸引力评分是</p>\n                          <p class='tips'>(1代表吸引力非常小，9代表吸引力非常大)</p>,6,post_test,pma-9.png
"""",null,html-keyboard-response,78,389075,0.0-6.0-0.11,135,1,2023/12/21 8:34,88e23e57077159ed4f24370af8da4c16,223.104.160.72,"Mozilla/5.0 (Windows NT 10.0; Win64; x64) AppleWebKit/537.36 (KHTML, like Gecko) Chrome/120.0.0.0 Safari/537.36 Edg/120.0.0.0",WebKit,Edge,120.0.0.0,Windows,10,null,"zh-CN,zh;q=0.9,en;q=0.8,en-GB;q=0.7,en-US;q=0.6","""","""","""","""","""","""",+,null,"""",""""
"""",4088,html-button-response,79,393165,0.0-6.0-1.11,135,1,2023/12/21 8:34,88e23e57077159ed4f24370af8da4c16,223.104.160.72,"Mozilla/5.0 (Windows NT 10.0; Win64; x64) AppleWebKit/537.36 (KHTML, like Gecko) Chrome/120.0.0.0 Safari/537.36 Edg/120.0.0.0",WebKit,Edge,120.0.0.0,Windows,10,null,"zh-CN,zh;q=0.9,en;q=0.8,en-GB;q=0.7,en-US;q=0.6","""","""","""","""","""","""",<img src='pmj-12.png'>\n                              <p class='attract'>该异性对您来说吸引力评分是</p>\n                              <p class='tips'>(1代表吸引力非常小，9代表吸引力非常大)</p>,4,pre_test,pmj-12.png
"""",1591,instructions,80,394757,0.0-6.0-2.11,135,1,2023/12/21 8:34,88e23e57077159ed4f24370af8da4c16,223.104.160.72,"Mozilla/5.0 (Windows NT 10.0; Win64; x64) AppleWebKit/537.36 (KHTML, like Gecko) Chrome/120.0.0.0 Safari/537.36 Edg/120.0.0.0",WebKit,Edge,120.0.0.0,Windows,10,null,"zh-CN,zh;q=0.9,en;q=0.8,en-GB;q=0.7,en-US;q=0.6","""","""","""","""","""","[{""page_index"":0,""viewing_time"":1590}]","""","""",喜欢的明星/小说人物,""""
"""",3806,html-button-response,81,398565,0.0-6.0-3.11,135,1,2023/12/21 8:34,88e23e57077159ed4f24370af8da4c16,223.104.160.72,"Mozilla/5.0 (Windows NT 10.0; Win64; x64) AppleWebKit/537.36 (KHTML, like Gecko) Chrome/120.0.0.0 Safari/537.36 Edg/120.0.0.0",WebKit,Edge,120.0.0.0,Windows,10,null,"zh-CN,zh;q=0.9,en;q=0.8,en-GB;q=0.7,en-US;q=0.6","""","""","""","""","""","""",<p class='attract'>以下有两个圆圈，一个代表你自己，一个代表刚刚你想象中的她，重叠部分代表你们的亲密程度，\n                              重叠部分越大代表你们之间越亲密，请选择以下哪个可以代表你们之间的亲密度</p>\n                              <img src='distance.png' width=85%>,2,distance,""""
"""",1527,instructions,82,400093,0.0-6.0-4.11,135,1,2023/12/21 8:34,88e23e57077159ed4f24370af8da4c16,223.104.160.72,"Mozilla/5.0 (Windows NT 10.0; Win64; x64) AppleWebKit/537.36 (KHTML, like Gecko) Chrome/120.0.0.0 Safari/537.36 Edg/120.0.0.0",WebKit,Edge,120.0.0.0,Windows,10,null,"zh-CN,zh;q=0.9,en;q=0.8,en-GB;q=0.7,en-US;q=0.6","""","""","""","""","""","[{""page_index"":0,""viewing_time"":1527}]","""","""","""",""""
"""",3342,html-button-response,83,403437,0.0-6.0-5.11,135,1,2023/12/21 8:34,88e23e57077159ed4f24370af8da4c16,223.104.160.72,"Mozilla/5.0 (Windows NT 10.0; Win64; x64) AppleWebKit/537.36 (KHTML, like Gecko) Chrome/120.0.0.0 Safari/537.36 Edg/120.0.0.0",WebKit,Edge,120.0.0.0,Windows,10,null,"zh-CN,zh;q=0.9,en;q=0.8,en-GB;q=0.7,en-US;q=0.6","""","""","""","""","""","""",<img src='pmj-12.png'>\n                          <p class='attract'>该异性对您来说吸引力评分是</p>\n                          <p class='tips'>(1代表吸引力非常小，9代表吸引力非常大)</p>,2,post_test,pmj-12.png
"""",null,html-keyboard-response,84,403948,0.0-6.0-0.12,135,1,2023/12/21 8:34,88e23e57077159ed4f24370af8da4c16,223.104.160.72,"Mozilla/5.0 (Windows NT 10.0; Win64; x64) AppleWebKit/537.36 (KHTML, like Gecko) Chrome/120.0.0.0 Safari/537.36 Edg/120.0.0.0",WebKit,Edge,120.0.0.0,Windows,10,null,"zh-CN,zh;q=0.9,en;q=0.8,en-GB;q=0.7,en-US;q=0.6","""","""","""","""","""","""",+,null,"""",""""
"""",2536,html-button-response,85,406485,0.0-6.0-1.12,135,1,2023/12/21 8:34,88e23e57077159ed4f24370af8da4c16,223.104.160.72,"Mozilla/5.0 (Windows NT 10.0; Win64; x64) AppleWebKit/537.36 (KHTML, like Gecko) Chrome/120.0.0.0 Safari/537.36 Edg/120.0.0.0",WebKit,Edge,120.0.0.0,Windows,10,null,"zh-CN,zh;q=0.9,en;q=0.8,en-GB;q=0.7,en-US;q=0.6","""","""","""","""","""","""",<img src='nmj-8.jpg'>\n                              <p class='attract'>该异性对您来说吸引力评分是</p>\n                              <p class='tips'>(1代表吸引力非常小，9代表吸引力非常大)</p>,0,pre_test,nmj-8.jpg
"""",1638,instructions,86,408125,0.0-6.0-2.12,135,1,2023/12/21 8:34,88e23e57077159ed4f24370af8da4c16,223.104.160.72,"Mozilla/5.0 (Windows NT 10.0; Win64; x64) AppleWebKit/537.36 (KHTML, like Gecko) Chrome/120.0.0.0 Safari/537.36 Edg/120.0.0.0",WebKit,Edge,120.0.0.0,Windows,10,null,"zh-CN,zh;q=0.9,en;q=0.8,en-GB;q=0.7,en-US;q=0.6","""","""","""","""","""","[{""page_index"":0,""viewing_time"":1638}]","""","""",喜欢的明星/小说人物,""""
"""",4998,html-button-response,87,413125,0.0-6.0-3.12,135,1,2023/12/21 8:34,88e23e57077159ed4f24370af8da4c16,223.104.160.72,"Mozilla/5.0 (Windows NT 10.0; Win64; x64) AppleWebKit/537.36 (KHTML, like Gecko) Chrome/120.0.0.0 Safari/537.36 Edg/120.0.0.0",WebKit,Edge,120.0.0.0,Windows,10,null,"zh-CN,zh;q=0.9,en;q=0.8,en-GB;q=0.7,en-US;q=0.6","""","""","""","""","""","""",<p class='attract'>以下有两个圆圈，一个代表你自己，一个代表刚刚你想象中的她，重叠部分代表你们的亲密程度，\n                              重叠部分越大代表你们之间越亲密，请选择以下哪个可以代表你们之间的亲密度</p>\n                              <img src='distance.png' width=85%>,1,distance,""""
"""",2334,instructions,88,415461,0.0-6.0-4.12,135,1,2023/12/21 8:34,88e23e57077159ed4f24370af8da4c16,223.104.160.72,"Mozilla/5.0 (Windows NT 10.0; Win64; x64) AppleWebKit/537.36 (KHTML, like Gecko) Chrome/120.0.0.0 Safari/537.36 Edg/120.0.0.0",WebKit,Edge,120.0.0.0,Windows,10,null,"zh-CN,zh;q=0.9,en;q=0.8,en-GB;q=0.7,en-US;q=0.6","""","""","""","""","""","[{""page_index"":0,""viewing_time"":2334}]","""","""","""",""""
"""",718,html-button-response,89,416181,0.0-6.0-5.12,135,1,2023/12/21 8:34,88e23e57077159ed4f24370af8da4c16,223.104.160.72,"Mozilla/5.0 (Windows NT 10.0; Win64; x64) AppleWebKit/537.36 (KHTML, like Gecko) Chrome/120.0.0.0 Safari/537.36 Edg/120.0.0.0",WebKit,Edge,120.0.0.0,Windows,10,null,"zh-CN,zh;q=0.9,en;q=0.8,en-GB;q=0.7,en-US;q=0.6","""","""","""","""","""","""",<img src='nmj-8.jpg'>\n                          <p class='attract'>该异性对您来说吸引力评分是</p>\n                          <p class='tips'>(1代表吸引力非常小，9代表吸引力非常大)</p>,0,post_test,nmj-8.jpg
"""",null,html-keyboard-response,90,416684,0.0-6.0-0.13,135,1,2023/12/21 8:34,88e23e57077159ed4f24370af8da4c16,223.104.160.72,"Mozilla/5.0 (Windows NT 10.0; Win64; x64) AppleWebKit/537.36 (KHTML, like Gecko) Chrome/120.0.0.0 Safari/537.36 Edg/120.0.0.0",WebKit,Edge,120.0.0.0,Windows,10,null,"zh-CN,zh;q=0.9,en;q=0.8,en-GB;q=0.7,en-US;q=0.6","""","""","""","""","""","""",+,null,"""",""""
"""",3975,html-button-response,91,420661,0.0-6.0-1.13,135,1,2023/12/21 8:34,88e23e57077159ed4f24370af8da4c16,223.104.160.72,"Mozilla/5.0 (Windows NT 10.0; Win64; x64) AppleWebKit/537.36 (KHTML, like Gecko) Chrome/120.0.0.0 Safari/537.36 Edg/120.0.0.0",WebKit,Edge,120.0.0.0,Windows,10,null,"zh-CN,zh;q=0.9,en;q=0.8,en-GB;q=0.7,en-US;q=0.6","""","""","""","""","""","""",<img src='pmj-11.png'>\n                              <p class='attract'>该异性对您来说吸引力评分是</p>\n                              <p class='tips'>(1代表吸引力非常小，9代表吸引力非常大)</p>,2,pre_test,pmj-11.png
"""",1151,instructions,92,421813,0.0-6.0-2.13,135,1,2023/12/21 8:34,88e23e57077159ed4f24370af8da4c16,223.104.160.72,"Mozilla/5.0 (Windows NT 10.0; Win64; x64) AppleWebKit/537.36 (KHTML, like Gecko) Chrome/120.0.0.0 Safari/537.36 Edg/120.0.0.0",WebKit,Edge,120.0.0.0,Windows,10,null,"zh-CN,zh;q=0.9,en;q=0.8,en-GB;q=0.7,en-US;q=0.6","""","""","""","""","""","[{""page_index"":0,""viewing_time"":1150}]","""","""",闺蜜,""""
"""",5206,html-button-response,93,427021,0.0-6.0-3.13,135,1,2023/12/21 8:34,88e23e57077159ed4f24370af8da4c16,223.104.160.72,"Mozilla/5.0 (Windows NT 10.0; Win64; x64) AppleWebKit/537.36 (KHTML, like Gecko) Chrome/120.0.0.0 Safari/537.36 Edg/120.0.0.0",WebKit,Edge,120.0.0.0,Windows,10,null,"zh-CN,zh;q=0.9,en;q=0.8,en-GB;q=0.7,en-US;q=0.6","""","""","""","""","""","""",<p class='attract'>以下有两个圆圈，一个代表你自己，一个代表刚刚你想象中的她，重叠部分代表你们的亲密程度，\n                              重叠部分越大代表你们之间越亲密，请选择以下哪个可以代表你们之间的亲密度</p>\n                              <img src='distance.png' width=85%>,3,distance,""""
"""",1903,instructions,94,428925,0.0-6.0-4.13,135,1,2023/12/21 8:34,88e23e57077159ed4f24370af8da4c16,223.104.160.72,"Mozilla/5.0 (Windows NT 10.0; Win64; x64) AppleWebKit/537.36 (KHTML, like Gecko) Chrome/120.0.0.0 Safari/537.36 Edg/120.0.0.0",WebKit,Edge,120.0.0.0,Windows,10,null,"zh-CN,zh;q=0.9,en;q=0.8,en-GB;q=0.7,en-US;q=0.6","""","""","""","""","""","[{""page_index"":0,""viewing_time"":1903}]","""","""","""",""""
"""",1110,html-button-response,95,430037,0.0-6.0-5.13,135,1,2023/12/21 8:34,88e23e57077159ed4f24370af8da4c16,223.104.160.72,"Mozilla/5.0 (Windows NT 10.0; Win64; x64) AppleWebKit/537.36 (KHTML, like Gecko) Chrome/120.0.0.0 Safari/537.36 Edg/120.0.0.0",WebKit,Edge,120.0.0.0,Windows,10,null,"zh-CN,zh;q=0.9,en;q=0.8,en-GB;q=0.7,en-US;q=0.6","""","""","""","""","""","""",<img src='pmj-11.png'>\n                          <p class='attract'>该异性对您来说吸引力评分是</p>\n                          <p class='tips'>(1代表吸引力非常小，9代表吸引力非常大)</p>,1,post_test,pmj-11.png
"""",null,html-keyboard-response,96,430541,0.0-6.0-0.14,135,1,2023/12/21 8:34,88e23e57077159ed4f24370af8da4c16,223.104.160.72,"Mozilla/5.0 (Windows NT 10.0; Win64; x64) AppleWebKit/537.36 (KHTML, like Gecko) Chrome/120.0.0.0 Safari/537.36 Edg/120.0.0.0",WebKit,Edge,120.0.0.0,Windows,10,null,"zh-CN,zh;q=0.9,en;q=0.8,en-GB;q=0.7,en-US;q=0.6","""","""","""","""","""","""",+,null,"""",""""
"""",1718,html-button-response,97,432261,0.0-6.0-1.14,135,1,2023/12/21 8:34,88e23e57077159ed4f24370af8da4c16,223.104.160.72,"Mozilla/5.0 (Windows NT 10.0; Win64; x64) AppleWebKit/537.36 (KHTML, like Gecko) Chrome/120.0.0.0 Safari/537.36 Edg/120.0.0.0",WebKit,Edge,120.0.0.0,Windows,10,null,"zh-CN,zh;q=0.9,en;q=0.8,en-GB;q=0.7,en-US;q=0.6","""","""","""","""","""","""",<img src='lma-1.jpg'>\n                              <p class='attract'>该异性对您来说吸引力评分是</p>\n                              <p class='tips'>(1代表吸引力非常小，9代表吸引力非常大)</p>,0,pre_test,lma-1.jpg
"""",1078,instructions,98,433341,0.0-6.0-2.14,135,1,2023/12/21 8:34,88e23e57077159ed4f24370af8da4c16,223.104.160.72,"Mozilla/5.0 (Windows NT 10.0; Win64; x64) AppleWebKit/537.36 (KHTML, like Gecko) Chrome/120.0.0.0 Safari/537.36 Edg/120.0.0.0",WebKit,Edge,120.0.0.0,Windows,10,null,"zh-CN,zh;q=0.9,en;q=0.8,en-GB;q=0.7,en-US;q=0.6","""","""","""","""","""","[{""page_index"":0,""viewing_time"":1078}]","""","""",素不相识,""""
"""",1006,html-button-response,99,434349,0.0-6.0-3.14,135,1,2023/12/21 8:34,88e23e57077159ed4f24370af8da4c16,223.104.160.72,"Mozilla/5.0 (Windows NT 10.0; Win64; x64) AppleWebKit/537.36 (KHTML, like Gecko) Chrome/120.0.0.0 Safari/537.36 Edg/120.0.0.0",WebKit,Edge,120.0.0.0,Windows,10,null,"zh-CN,zh;q=0.9,en;q=0.8,en-GB;q=0.7,en-US;q=0.6","""","""","""","""","""","""",<p class='attract'>以下有两个圆圈，一个代表你自己，一个代表刚刚你想象中的她，重叠部分代表你们的亲密程度，\n                              重叠部分越大代表你们之间越亲密，请选择以下哪个可以代表你们之间的亲密度</p>\n                              <img src='distance.png' width=85%>,0,distance,""""
"""",1382,instructions,100,435732,0.0-6.0-4.14,135,1,2023/12/21 8:34,88e23e57077159ed4f24370af8da4c16,223.104.160.72,"Mozilla/5.0 (Windows NT 10.0; Win64; x64) AppleWebKit/537.36 (KHTML, like Gecko) Chrome/120.0.0.0 Safari/537.36 Edg/120.0.0.0",WebKit,Edge,120.0.0.0,Windows,10,null,"zh-CN,zh;q=0.9,en;q=0.8,en-GB;q=0.7,en-US;q=0.6","""","""","""","""","""","[{""page_index"":0,""viewing_time"":1382}]","""","""","""",""""
"""",2734,html-button-response,101,438469,0.0-6.0-5.14,135,1,2023/12/21 8:34,88e23e57077159ed4f24370af8da4c16,223.104.160.72,"Mozilla/5.0 (Windows NT 10.0; Win64; x64) AppleWebKit/537.36 (KHTML, like Gecko) Chrome/120.0.0.0 Safari/537.36 Edg/120.0.0.0",WebKit,Edge,120.0.0.0,Windows,10,null,"zh-CN,zh;q=0.9,en;q=0.8,en-GB;q=0.7,en-US;q=0.6","""","""","""","""","""","""",<img src='lma-1.jpg'>\n                          <p class='attract'>该异性对您来说吸引力评分是</p>\n                          <p class='tips'>(1代表吸引力非常小，9代表吸引力非常大)</p>,0,post_test,lma-1.jpg
"""",null,html-keyboard-response,102,438973,0.0-6.0-0.15,135,1,2023/12/21 8:34,88e23e57077159ed4f24370af8da4c16,223.104.160.72,"Mozilla/5.0 (Windows NT 10.0; Win64; x64) AppleWebKit/537.36 (KHTML, like Gecko) Chrome/120.0.0.0 Safari/537.36 Edg/120.0.0.0",WebKit,Edge,120.0.0.0,Windows,10,null,"zh-CN,zh;q=0.9,en;q=0.8,en-GB;q=0.7,en-US;q=0.6","""","""","""","""","""","""",+,null,"""",""""
"""",9453,html-button-response,103,448428,0.0-6.0-1.15,135,1,2023/12/21 8:34,88e23e57077159ed4f24370af8da4c16,223.104.160.72,"Mozilla/5.0 (Windows NT 10.0; Win64; x64) AppleWebKit/537.36 (KHTML, like Gecko) Chrome/120.0.0.0 Safari/537.36 Edg/120.0.0.0",WebKit,Edge,120.0.0.0,Windows,10,null,"zh-CN,zh;q=0.9,en;q=0.8,en-GB;q=0.7,en-US;q=0.6","""","""","""","""","""","""",<img src='nma-6.png'>\n                              <p class='attract'>该异性对您来说吸引力评分是</p>\n                              <p class='tips'>(1代表吸引力非常小，9代表吸引力非常大)</p>,2,pre_test,nma-6.png
"""",1230,instructions,104,449660,0.0-6.0-2.15,135,1,2023/12/21 8:34,88e23e57077159ed4f24370af8da4c16,223.104.160.72,"Mozilla/5.0 (Windows NT 10.0; Win64; x64) AppleWebKit/537.36 (KHTML, like Gecko) Chrome/120.0.0.0 Safari/537.36 Edg/120.0.0.0",WebKit,Edge,120.0.0.0,Windows,10,null,"zh-CN,zh;q=0.9,en;q=0.8,en-GB;q=0.7,en-US;q=0.6","""","""","""","""","""","[{""page_index"":0,""viewing_time"":1230}]","""","""",喜欢的明星/小说人物,""""
"""",3447,html-button-response,105,453109,0.0-6.0-3.15,135,1,2023/12/21 8:34,88e23e57077159ed4f24370af8da4c16,223.104.160.72,"Mozilla/5.0 (Windows NT 10.0; Win64; x64) AppleWebKit/537.36 (KHTML, like Gecko) Chrome/120.0.0.0 Safari/537.36 Edg/120.0.0.0",WebKit,Edge,120.0.0.0,Windows,10,null,"zh-CN,zh;q=0.9,en;q=0.8,en-GB;q=0.7,en-US;q=0.6","""","""","""","""","""","""",<p class='attract'>以下有两个圆圈，一个代表你自己，一个代表刚刚你想象中的她，重叠部分代表你们的亲密程度，\n                              重叠部分越大代表你们之间越亲密，请选择以下哪个可以代表你们之间的亲密度</p>\n                              <img src='distance.png' width=85%>,1,distance,""""
"""",1030,instructions,106,454141,0.0-6.0-4.15,135,1,2023/12/21 8:34,88e23e57077159ed4f24370af8da4c16,223.104.160.72,"Mozilla/5.0 (Windows NT 10.0; Win64; x64) AppleWebKit/537.36 (KHTML, like Gecko) Chrome/120.0.0.0 Safari/537.36 Edg/120.0.0.0",WebKit,Edge,120.0.0.0,Windows,10,null,"zh-CN,zh;q=0.9,en;q=0.8,en-GB;q=0.7,en-US;q=0.6","""","""","""","""","""","[{""page_index"":0,""viewing_time"":1030}]","""","""","""",""""
"""",958,html-button-response,107,455101,0.0-6.0-5.15,135,1,2023/12/21 8:34,88e23e57077159ed4f24370af8da4c16,223.104.160.72,"Mozilla/5.0 (Windows NT 10.0; Win64; x64) AppleWebKit/537.36 (KHTML, like Gecko) Chrome/120.0.0.0 Safari/537.36 Edg/120.0.0.0",WebKit,Edge,120.0.0.0,Windows,10,null,"zh-CN,zh;q=0.9,en;q=0.8,en-GB;q=0.7,en-US;q=0.6","""","""","""","""","""","""",<img src='nma-6.png'>\n                          <p class='attract'>该异性对您来说吸引力评分是</p>\n                          <p class='tips'>(1代表吸引力非常小，9代表吸引力非常大)</p>,3,post_test,nma-6.png
"""",null,html-keyboard-response,108,455618,0.0-6.0-0.16,135,1,2023/12/21 8:34,88e23e57077159ed4f24370af8da4c16,223.104.160.72,"Mozilla/5.0 (Windows NT 10.0; Win64; x64) AppleWebKit/537.36 (KHTML, like Gecko) Chrome/120.0.0.0 Safari/537.36 Edg/120.0.0.0",WebKit,Edge,120.0.0.0,Windows,10,null,"zh-CN,zh;q=0.9,en;q=0.8,en-GB;q=0.7,en-US;q=0.6","""","""","""","""","""","""",+,null,"""",""""
"""",5576,html-button-response,109,461196,0.0-6.0-1.16,135,1,2023/12/21 8:34,88e23e57077159ed4f24370af8da4c16,223.104.160.72,"Mozilla/5.0 (Windows NT 10.0; Win64; x64) AppleWebKit/537.36 (KHTML, like Gecko) Chrome/120.0.0.0 Safari/537.36 Edg/120.0.0.0",WebKit,Edge,120.0.0.0,Windows,10,null,"zh-CN,zh;q=0.9,en;q=0.8,en-GB;q=0.7,en-US;q=0.6","""","""","""","""","""","""",<img src='pmj-11.png'>\n                              <p class='attract'>该异性对您来说吸引力评分是</p>\n                              <p class='tips'>(1代表吸引力非常小，9代表吸引力非常大)</p>,2,pre_test,pmj-11.png
"""",1015,instructions,110,462213,0.0-6.0-2.16,135,1,2023/12/21 8:34,88e23e57077159ed4f24370af8da4c16,223.104.160.72,"Mozilla/5.0 (Windows NT 10.0; Win64; x64) AppleWebKit/537.36 (KHTML, like Gecko) Chrome/120.0.0.0 Safari/537.36 Edg/120.0.0.0",WebKit,Edge,120.0.0.0,Windows,10,null,"zh-CN,zh;q=0.9,en;q=0.8,en-GB;q=0.7,en-US;q=0.6","""","""","""","""","""","[{""page_index"":0,""viewing_time"":1015}]","""","""",喜欢的明星/小说人物,""""
"""",1390,html-button-response,111,463605,0.0-6.0-3.16,135,1,2023/12/21 8:34,88e23e57077159ed4f24370af8da4c16,223.104.160.72,"Mozilla/5.0 (Windows NT 10.0; Win64; x64) AppleWebKit/537.36 (KHTML, like Gecko) Chrome/120.0.0.0 Safari/537.36 Edg/120.0.0.0",WebKit,Edge,120.0.0.0,Windows,10,null,"zh-CN,zh;q=0.9,en;q=0.8,en-GB;q=0.7,en-US;q=0.6","""","""","""","""","""","""",<p class='attract'>以下有两个圆圈，一个代表你自己，一个代表刚刚你想象中的她，重叠部分代表你们的亲密程度，\n                              重叠部分越大代表你们之间越亲密，请选择以下哪个可以代表你们之间的亲密度</p>\n                              <img src='distance.png' width=85%>,1,distance,""""
"""",1558,instructions,112,465164,0.0-6.0-4.16,135,1,2023/12/21 8:34,88e23e57077159ed4f24370af8da4c16,223.104.160.72,"Mozilla/5.0 (Windows NT 10.0; Win64; x64) AppleWebKit/537.36 (KHTML, like Gecko) Chrome/120.0.0.0 Safari/537.36 Edg/120.0.0.0",WebKit,Edge,120.0.0.0,Windows,10,null,"zh-CN,zh;q=0.9,en;q=0.8,en-GB;q=0.7,en-US;q=0.6","""","""","""","""","""","[{""page_index"":0,""viewing_time"":1558}]","""","""","""",""""
"""",3662,html-button-response,113,468829,0.0-6.0-5.16,135,1,2023/12/21 8:34,88e23e57077159ed4f24370af8da4c16,223.104.160.72,"Mozilla/5.0 (Windows NT 10.0; Win64; x64) AppleWebKit/537.36 (KHTML, like Gecko) Chrome/120.0.0.0 Safari/537.36 Edg/120.0.0.0",WebKit,Edge,120.0.0.0,Windows,10,null,"zh-CN,zh;q=0.9,en;q=0.8,en-GB;q=0.7,en-US;q=0.6","""","""","""","""","""","""",<img src='pmj-11.png'>\n                          <p class='attract'>该异性对您来说吸引力评分是</p>\n                          <p class='tips'>(1代表吸引力非常小，9代表吸引力非常大)</p>,1,post_test,pmj-11.png
"""",null,html-keyboard-response,114,469332,0.0-6.0-0.17,135,1,2023/12/21 8:34,88e23e57077159ed4f24370af8da4c16,223.104.160.72,"Mozilla/5.0 (Windows NT 10.0; Win64; x64) AppleWebKit/537.36 (KHTML, like Gecko) Chrome/120.0.0.0 Safari/537.36 Edg/120.0.0.0",WebKit,Edge,120.0.0.0,Windows,10,null,"zh-CN,zh;q=0.9,en;q=0.8,en-GB;q=0.7,en-US;q=0.6","""","""","""","""","""","""",+,null,"""",""""
"""",1335,html-button-response,115,470670,0.0-6.0-1.17,135,1,2023/12/21 8:34,88e23e57077159ed4f24370af8da4c16,223.104.160.72,"Mozilla/5.0 (Windows NT 10.0; Win64; x64) AppleWebKit/537.36 (KHTML, like Gecko) Chrome/120.0.0.0 Safari/537.36 Edg/120.0.0.0",WebKit,Edge,120.0.0.0,Windows,10,null,"zh-CN,zh;q=0.9,en;q=0.8,en-GB;q=0.7,en-US;q=0.6","""","""","""","""","""","""",<img src='lmj-4.jpg'>\n                              <p class='attract'>该异性对您来说吸引力评分是</p>\n                              <p class='tips'>(1代表吸引力非常小，9代表吸引力非常大)</p>,0,pre_test,lmj-4.jpg
"""",1100,instructions,116,471772,0.0-6.0-2.17,135,1,2023/12/21 8:34,88e23e57077159ed4f24370af8da4c16,223.104.160.72,"Mozilla/5.0 (Windows NT 10.0; Win64; x64) AppleWebKit/537.36 (KHTML, like Gecko) Chrome/120.0.0.0 Safari/537.36 Edg/120.0.0.0",WebKit,Edge,120.0.0.0,Windows,10,null,"zh-CN,zh;q=0.9,en;q=0.8,en-GB;q=0.7,en-US;q=0.6","""","""","""","""","""","[{""page_index"":0,""viewing_time"":1100}]","""","""",闺蜜,""""
"""",1198,html-button-response,117,472973,0.0-6.0-3.17,135,1,2023/12/21 8:34,88e23e57077159ed4f24370af8da4c16,223.104.160.72,"Mozilla/5.0 (Windows NT 10.0; Win64; x64) AppleWebKit/537.36 (KHTML, like Gecko) Chrome/120.0.0.0 Safari/537.36 Edg/120.0.0.0",WebKit,Edge,120.0.0.0,Windows,10,null,"zh-CN,zh;q=0.9,en;q=0.8,en-GB;q=0.7,en-US;q=0.6","""","""","""","""","""","""",<p class='attract'>以下有两个圆圈，一个代表你自己，一个代表刚刚你想象中的她，重叠部分代表你们的亲密程度，\n                              重叠部分越大代表你们之间越亲密，请选择以下哪个可以代表你们之间的亲密度</p>\n                              <img src='distance.png' width=85%>,3,distance,""""
"""",1387,instructions,118,474364,0.0-6.0-4.17,135,1,2023/12/21 8:34,88e23e57077159ed4f24370af8da4c16,223.104.160.72,"Mozilla/5.0 (Windows NT 10.0; Win64; x64) AppleWebKit/537.36 (KHTML, like Gecko) Chrome/120.0.0.0 Safari/537.36 Edg/120.0.0.0",WebKit,Edge,120.0.0.0,Windows,10,null,"zh-CN,zh;q=0.9,en;q=0.8,en-GB;q=0.7,en-US;q=0.6","""","""","""","""","""","[{""page_index"":0,""viewing_time"":1386}]","""","""","""",""""
"""",1038,html-button-response,119,475405,0.0-6.0-5.17,135,1,2023/12/21 8:34,88e23e57077159ed4f24370af8da4c16,223.104.160.72,"Mozilla/5.0 (Windows NT 10.0; Win64; x64) AppleWebKit/537.36 (KHTML, like Gecko) Chrome/120.0.0.0 Safari/537.36 Edg/120.0.0.0",WebKit,Edge,120.0.0.0,Windows,10,null,"zh-CN,zh;q=0.9,en;q=0.8,en-GB;q=0.7,en-US;q=0.6","""","""","""","""","""","""",<img src='lmj-4.jpg'>\n                          <p class='attract'>该异性对您来说吸引力评分是</p>\n                          <p class='tips'>(1代表吸引力非常小，9代表吸引力非常大)</p>,1,post_test,lmj-4.jpg
"""",null,html-keyboard-response,120,475908,0.0-6.0-0.18,135,1,2023/12/21 8:34,88e23e57077159ed4f24370af8da4c16,223.104.160.72,"Mozilla/5.0 (Windows NT 10.0; Win64; x64) AppleWebKit/537.36 (KHTML, like Gecko) Chrome/120.0.0.0 Safari/537.36 Edg/120.0.0.0",WebKit,Edge,120.0.0.0,Windows,10,null,"zh-CN,zh;q=0.9,en;q=0.8,en-GB;q=0.7,en-US;q=0.6","""","""","""","""","""","""",+,null,"""",""""
"""",9391,html-button-response,121,485301,0.0-6.0-1.18,135,1,2023/12/21 8:34,88e23e57077159ed4f24370af8da4c16,223.104.160.72,"Mozilla/5.0 (Windows NT 10.0; Win64; x64) AppleWebKit/537.36 (KHTML, like Gecko) Chrome/120.0.0.0 Safari/537.36 Edg/120.0.0.0",WebKit,Edge,120.0.0.0,Windows,10,null,"zh-CN,zh;q=0.9,en;q=0.8,en-GB;q=0.7,en-US;q=0.6","""","""","""","""","""","""",<img src='pma-10.png'>\n                              <p class='attract'>该异性对您来说吸引力评分是</p>\n                              <p class='tips'>(1代表吸引力非常小，9代表吸引力非常大)</p>,2,pre_test,pma-10.png
"""",1158,instructions,122,486461,0.0-6.0-2.18,135,1,2023/12/21 8:34,88e23e57077159ed4f24370af8da4c16,223.104.160.72,"Mozilla/5.0 (Windows NT 10.0; Win64; x64) AppleWebKit/537.36 (KHTML, like Gecko) Chrome/120.0.0.0 Safari/537.36 Edg/120.0.0.0",WebKit,Edge,120.0.0.0,Windows,10,null,"zh-CN,zh;q=0.9,en;q=0.8,en-GB;q=0.7,en-US;q=0.6","""","""","""","""","""","[{""page_index"":0,""viewing_time"":1158}]","""","""",素不相识,""""
"""",1317,html-button-response,123,487780,0.0-6.0-3.18,135,1,2023/12/21 8:34,88e23e57077159ed4f24370af8da4c16,223.104.160.72,"Mozilla/5.0 (Windows NT 10.0; Win64; x64) AppleWebKit/537.36 (KHTML, like Gecko) Chrome/120.0.0.0 Safari/537.36 Edg/120.0.0.0",WebKit,Edge,120.0.0.0,Windows,10,null,"zh-CN,zh;q=0.9,en;q=0.8,en-GB;q=0.7,en-US;q=0.6","""","""","""","""","""","""",<p class='attract'>以下有两个圆圈，一个代表你自己，一个代表刚刚你想象中的她，重叠部分代表你们的亲密程度，\n                              重叠部分越大代表你们之间越亲密，请选择以下哪个可以代表你们之间的亲密度</p>\n                              <img src='distance.png' width=85%>,0,distance,""""
"""",1390,instructions,124,489173,0.0-6.0-4.18,135,1,2023/12/21 8:34,88e23e57077159ed4f24370af8da4c16,223.104.160.72,"Mozilla/5.0 (Windows NT 10.0; Win64; x64) AppleWebKit/537.36 (KHTML, like Gecko) Chrome/120.0.0.0 Safari/537.36 Edg/120.0.0.0",WebKit,Edge,120.0.0.0,Windows,10,null,"zh-CN,zh;q=0.9,en;q=0.8,en-GB;q=0.7,en-US;q=0.6","""","""","""","""","""","[{""page_index"":0,""viewing_time"":1390}]","""","""","""",""""
"""",2021,html-button-response,125,491196,0.0-6.0-5.18,135,1,2023/12/21 8:34,88e23e57077159ed4f24370af8da4c16,223.104.160.72,"Mozilla/5.0 (Windows NT 10.0; Win64; x64) AppleWebKit/537.36 (KHTML, like Gecko) Chrome/120.0.0.0 Safari/537.36 Edg/120.0.0.0",WebKit,Edge,120.0.0.0,Windows,10,null,"zh-CN,zh;q=0.9,en;q=0.8,en-GB;q=0.7,en-US;q=0.6","""","""","""","""","""","""",<img src='pma-10.png'>\n                          <p class='attract'>该异性对您来说吸引力评分是</p>\n                          <p class='tips'>(1代表吸引力非常小，9代表吸引力非常大)</p>,3,post_test,pma-10.png
"""",null,html-keyboard-response,126,491701,0.0-6.0-0.19,135,1,2023/12/21 8:34,88e23e57077159ed4f24370af8da4c16,223.104.160.72,"Mozilla/5.0 (Windows NT 10.0; Win64; x64) AppleWebKit/537.36 (KHTML, like Gecko) Chrome/120.0.0.0 Safari/537.36 Edg/120.0.0.0",WebKit,Edge,120.0.0.0,Windows,10,null,"zh-CN,zh;q=0.9,en;q=0.8,en-GB;q=0.7,en-US;q=0.6","""","""","""","""","""","""",+,null,"""",""""
"""",2765,html-button-response,127,494468,0.0-6.0-1.19,135,1,2023/12/21 8:34,88e23e57077159ed4f24370af8da4c16,223.104.160.72,"Mozilla/5.0 (Windows NT 10.0; Win64; x64) AppleWebKit/537.36 (KHTML, like Gecko) Chrome/120.0.0.0 Safari/537.36 Edg/120.0.0.0",WebKit,Edge,120.0.0.0,Windows,10,null,"zh-CN,zh;q=0.9,en;q=0.8,en-GB;q=0.7,en-US;q=0.6","""","""","""","""","""","""",<img src='nma-5.jpg'>\n                              <p class='attract'>该异性对您来说吸引力评分是</p>\n                              <p class='tips'>(1代表吸引力非常小，9代表吸引力非常大)</p>,1,pre_test,nma-5.jpg
"""",1174,instructions,128,495645,0.0-6.0-2.19,135,1,2023/12/21 8:34,88e23e57077159ed4f24370af8da4c16,223.104.160.72,"Mozilla/5.0 (Windows NT 10.0; Win64; x64) AppleWebKit/537.36 (KHTML, like Gecko) Chrome/120.0.0.0 Safari/537.36 Edg/120.0.0.0",WebKit,Edge,120.0.0.0,Windows,10,null,"zh-CN,zh;q=0.9,en;q=0.8,en-GB;q=0.7,en-US;q=0.6","""","""","""","""","""","[{""page_index"":0,""viewing_time"":1174}]","""","""",喜欢的明星/小说人物,""""
"""",4269,html-button-response,129,499916,0.0-6.0-3.19,135,1,2023/12/21 8:34,88e23e57077159ed4f24370af8da4c16,223.104.160.72,"Mozilla/5.0 (Windows NT 10.0; Win64; x64) AppleWebKit/537.36 (KHTML, like Gecko) Chrome/120.0.0.0 Safari/537.36 Edg/120.0.0.0",WebKit,Edge,120.0.0.0,Windows,10,null,"zh-CN,zh;q=0.9,en;q=0.8,en-GB;q=0.7,en-US;q=0.6","""","""","""","""","""","""",<p class='attract'>以下有两个圆圈，一个代表你自己，一个代表刚刚你想象中的她，重叠部分代表你们的亲密程度，\n                              重叠部分越大代表你们之间越亲密，请选择以下哪个可以代表你们之间的亲密度</p>\n                              <img src='distance.png' width=85%>,1,distance,""""
"""",1286,instructions,130,501205,0.0-6.0-4.19,135,1,2023/12/21 8:34,88e23e57077159ed4f24370af8da4c16,223.104.160.72,"Mozilla/5.0 (Windows NT 10.0; Win64; x64) AppleWebKit/537.36 (KHTML, like Gecko) Chrome/120.0.0.0 Safari/537.36 Edg/120.0.0.0",WebKit,Edge,120.0.0.0,Windows,10,null,"zh-CN,zh;q=0.9,en;q=0.8,en-GB;q=0.7,en-US;q=0.6","""","""","""","""","""","[{""page_index"":0,""viewing_time"":1286}]","""","""","""",""""
"""",989,html-button-response,131,502196,0.0-6.0-5.19,135,1,2023/12/21 8:34,88e23e57077159ed4f24370af8da4c16,223.104.160.72,"Mozilla/5.0 (Windows NT 10.0; Win64; x64) AppleWebKit/537.36 (KHTML, like Gecko) Chrome/120.0.0.0 Safari/537.36 Edg/120.0.0.0",WebKit,Edge,120.0.0.0,Windows,10,null,"zh-CN,zh;q=0.9,en;q=0.8,en-GB;q=0.7,en-US;q=0.6","""","""","""","""","""","""",<img src='nma-5.jpg'>\n                          <p class='attract'>该异性对您来说吸引力评分是</p>\n                          <p class='tips'>(1代表吸引力非常小，9代表吸引力非常大)</p>,3,post_test,nma-5.jpg
"""",null,html-keyboard-response,132,502707,0.0-6.0-0.20,135,1,2023/12/21 8:34,88e23e57077159ed4f24370af8da4c16,223.104.160.72,"Mozilla/5.0 (Windows NT 10.0; Win64; x64) AppleWebKit/537.36 (KHTML, like Gecko) Chrome/120.0.0.0 Safari/537.36 Edg/120.0.0.0",WebKit,Edge,120.0.0.0,Windows,10,null,"zh-CN,zh;q=0.9,en;q=0.8,en-GB;q=0.7,en-US;q=0.6","""","""","""","""","""","""",+,null,"""",""""
"""",2479,html-button-response,133,505189,0.0-6.0-1.20,135,1,2023/12/21 8:34,88e23e57077159ed4f24370af8da4c16,223.104.160.72,"Mozilla/5.0 (Windows NT 10.0; Win64; x64) AppleWebKit/537.36 (KHTML, like Gecko) Chrome/120.0.0.0 Safari/537.36 Edg/120.0.0.0",WebKit,Edge,120.0.0.0,Windows,10,null,"zh-CN,zh;q=0.9,en;q=0.8,en-GB;q=0.7,en-US;q=0.6","""","""","""","""","""","""",<img src='lmj-4.jpg'>\n                              <p class='attract'>该异性对您来说吸引力评分是</p>\n                              <p class='tips'>(1代表吸引力非常小，9代表吸引力非常大)</p>,0,pre_test,lmj-4.jpg
"""",1285,instructions,134,506476,0.0-6.0-2.20,135,1,2023/12/21 8:34,88e23e57077159ed4f24370af8da4c16,223.104.160.72,"Mozilla/5.0 (Windows NT 10.0; Win64; x64) AppleWebKit/537.36 (KHTML, like Gecko) Chrome/120.0.0.0 Safari/537.36 Edg/120.0.0.0",WebKit,Edge,120.0.0.0,Windows,10,null,"zh-CN,zh;q=0.9,en;q=0.8,en-GB;q=0.7,en-US;q=0.6","""","""","""","""","""","[{""page_index"":0,""viewing_time"":1285}]","""","""",喜欢的明星/小说人物,""""
"""",1182,html-button-response,135,507661,0.0-6.0-3.20,135,1,2023/12/21 8:34,88e23e57077159ed4f24370af8da4c16,223.104.160.72,"Mozilla/5.0 (Windows NT 10.0; Win64; x64) AppleWebKit/537.36 (KHTML, like Gecko) Chrome/120.0.0.0 Safari/537.36 Edg/120.0.0.0",WebKit,Edge,120.0.0.0,Windows,10,null,"zh-CN,zh;q=0.9,en;q=0.8,en-GB;q=0.7,en-US;q=0.6","""","""","""","""","""","""",<p class='attract'>以下有两个圆圈，一个代表你自己，一个代表刚刚你想象中的她，重叠部分代表你们的亲密程度，\n                              重叠部分越大代表你们之间越亲密，请选择以下哪个可以代表你们之间的亲密度</p>\n                              <img src='distance.png' width=85%>,1,distance,""""
"""",1373,instructions,136,509036,0.0-6.0-4.20,135,1,2023/12/21 8:34,88e23e57077159ed4f24370af8da4c16,223.104.160.72,"Mozilla/5.0 (Windows NT 10.0; Win64; x64) AppleWebKit/537.36 (KHTML, like Gecko) Chrome/120.0.0.0 Safari/537.36 Edg/120.0.0.0",WebKit,Edge,120.0.0.0,Windows,10,null,"zh-CN,zh;q=0.9,en;q=0.8,en-GB;q=0.7,en-US;q=0.6","""","""","""","""","""","[{""page_index"":0,""viewing_time"":1373}]","""","""","""",""""
"""",3094,html-button-response,137,512133,0.0-6.0-5.20,135,1,2023/12/21 8:34,88e23e57077159ed4f24370af8da4c16,223.104.160.72,"Mozilla/5.0 (Windows NT 10.0; Win64; x64) AppleWebKit/537.36 (KHTML, like Gecko) Chrome/120.0.0.0 Safari/537.36 Edg/120.0.0.0",WebKit,Edge,120.0.0.0,Windows,10,null,"zh-CN,zh;q=0.9,en;q=0.8,en-GB;q=0.7,en-US;q=0.6","""","""","""","""","""","""",<img src='lmj-4.jpg'>\n                          <p class='attract'>该异性对您来说吸引力评分是</p>\n                          <p class='tips'>(1代表吸引力非常小，9代表吸引力非常大)</p>,1,post_test,lmj-4.jpg
"""",null,html-keyboard-response,138,512646,0.0-6.0-0.21,135,1,2023/12/21 8:34,88e23e57077159ed4f24370af8da4c16,223.104.160.72,"Mozilla/5.0 (Windows NT 10.0; Win64; x64) AppleWebKit/537.36 (KHTML, like Gecko) Chrome/120.0.0.0 Safari/537.36 Edg/120.0.0.0",WebKit,Edge,120.0.0.0,Windows,10,null,"zh-CN,zh;q=0.9,en;q=0.8,en-GB;q=0.7,en-US;q=0.6","""","""","""","""","""","""",+,null,"""",""""
"""",4260,html-button-response,139,516908,0.0-6.0-1.21,135,1,2023/12/21 8:34,88e23e57077159ed4f24370af8da4c16,223.104.160.72,"Mozilla/5.0 (Windows NT 10.0; Win64; x64) AppleWebKit/537.36 (KHTML, like Gecko) Chrome/120.0.0.0 Safari/537.36 Edg/120.0.0.0",WebKit,Edge,120.0.0.0,Windows,10,null,"zh-CN,zh;q=0.9,en;q=0.8,en-GB;q=0.7,en-US;q=0.6","""","""","""","""","""","""",<img src='nmj-8.jpg'>\n                              <p class='attract'>该异性对您来说吸引力评分是</p>\n                              <p class='tips'>(1代表吸引力非常小，9代表吸引力非常大)</p>,0,pre_test,nmj-8.jpg
"""",894,instructions,140,517804,0.0-6.0-2.21,135,1,2023/12/21 8:34,88e23e57077159ed4f24370af8da4c16,223.104.160.72,"Mozilla/5.0 (Windows NT 10.0; Win64; x64) AppleWebKit/537.36 (KHTML, like Gecko) Chrome/120.0.0.0 Safari/537.36 Edg/120.0.0.0",WebKit,Edge,120.0.0.0,Windows,10,null,"zh-CN,zh;q=0.9,en;q=0.8,en-GB;q=0.7,en-US;q=0.6","""","""","""","""","""","[{""page_index"":0,""viewing_time"":894}]","""","""",闺蜜,""""
"""",1157,html-button-response,141,518964,0.0-6.0-3.21,135,1,2023/12/21 8:34,88e23e57077159ed4f24370af8da4c16,223.104.160.72,"Mozilla/5.0 (Windows NT 10.0; Win64; x64) AppleWebKit/537.36 (KHTML, like Gecko) Chrome/120.0.0.0 Safari/537.36 Edg/120.0.0.0",WebKit,Edge,120.0.0.0,Windows,10,null,"zh-CN,zh;q=0.9,en;q=0.8,en-GB;q=0.7,en-US;q=0.6","""","""","""","""","""","""",<p class='attract'>以下有两个圆圈，一个代表你自己，一个代表刚刚你想象中的她，重叠部分代表你们的亲密程度，\n                              重叠部分越大代表你们之间越亲密，请选择以下哪个可以代表你们之间的亲密度</p>\n                              <img src='distance.png' width=85%>,3,distance,""""
"""",1941,instructions,142,520908,0.0-6.0-4.21,135,1,2023/12/21 8:34,88e23e57077159ed4f24370af8da4c16,223.104.160.72,"Mozilla/5.0 (Windows NT 10.0; Win64; x64) AppleWebKit/537.36 (KHTML, like Gecko) Chrome/120.0.0.0 Safari/537.36 Edg/120.0.0.0",WebKit,Edge,120.0.0.0,Windows,10,null,"zh-CN,zh;q=0.9,en;q=0.8,en-GB;q=0.7,en-US;q=0.6","""","""","""","""","""","[{""page_index"":0,""viewing_time"":1941}]","""","""","""",""""
"""",3965,html-button-response,143,524876,0.0-6.0-5.21,135,1,2023/12/21 8:34,88e23e57077159ed4f24370af8da4c16,223.104.160.72,"Mozilla/5.0 (Windows NT 10.0; Win64; x64) AppleWebKit/537.36 (KHTML, like Gecko) Chrome/120.0.0.0 Safari/537.36 Edg/120.0.0.0",WebKit,Edge,120.0.0.0,Windows,10,null,"zh-CN,zh;q=0.9,en;q=0.8,en-GB;q=0.7,en-US;q=0.6","""","""","""","""","""","""",<img src='nmj-8.jpg'>\n                          <p class='attract'>该异性对您来说吸引力评分是</p>\n                          <p class='tips'>(1代表吸引力非常小，9代表吸引力非常大)</p>,1,post_test,nmj-8.jpg
"""",null,html-keyboard-response,144,525379,0.0-6.0-0.22,135,1,2023/12/21 8:34,88e23e57077159ed4f24370af8da4c16,223.104.160.72,"Mozilla/5.0 (Windows NT 10.0; Win64; x64) AppleWebKit/537.36 (KHTML, like Gecko) Chrome/120.0.0.0 Safari/537.36 Edg/120.0.0.0",WebKit,Edge,120.0.0.0,Windows,10,null,"zh-CN,zh;q=0.9,en;q=0.8,en-GB;q=0.7,en-US;q=0.6","""","""","""","""","""","""",+,null,"""",""""
"""",3566,html-button-response,145,528948,0.0-6.0-1.22,135,1,2023/12/21 8:34,88e23e57077159ed4f24370af8da4c16,223.104.160.72,"Mozilla/5.0 (Windows NT 10.0; Win64; x64) AppleWebKit/537.36 (KHTML, like Gecko) Chrome/120.0.0.0 Safari/537.36 Edg/120.0.0.0",WebKit,Edge,120.0.0.0,Windows,10,null,"zh-CN,zh;q=0.9,en;q=0.8,en-GB;q=0.7,en-US;q=0.6","""","""","""","""","""","""",<img src='nmj-7.jpg'>\n                              <p class='attract'>该异性对您来说吸引力评分是</p>\n                              <p class='tips'>(1代表吸引力非常小，9代表吸引力非常大)</p>,1,pre_test,nmj-7.jpg
"""",886,instructions,146,529837,0.0-6.0-2.22,135,1,2023/12/21 8:34,88e23e57077159ed4f24370af8da4c16,223.104.160.72,"Mozilla/5.0 (Windows NT 10.0; Win64; x64) AppleWebKit/537.36 (KHTML, like Gecko) Chrome/120.0.0.0 Safari/537.36 Edg/120.0.0.0",WebKit,Edge,120.0.0.0,Windows,10,null,"zh-CN,zh;q=0.9,en;q=0.8,en-GB;q=0.7,en-US;q=0.6","""","""","""","""","""","[{""page_index"":0,""viewing_time"":886}]","""","""",素不相识,""""
"""",1229,html-button-response,147,531068,0.0-6.0-3.22,135,1,2023/12/21 8:34,88e23e57077159ed4f24370af8da4c16,223.104.160.72,"Mozilla/5.0 (Windows NT 10.0; Win64; x64) AppleWebKit/537.36 (KHTML, like Gecko) Chrome/120.0.0.0 Safari/537.36 Edg/120.0.0.0",WebKit,Edge,120.0.0.0,Windows,10,null,"zh-CN,zh;q=0.9,en;q=0.8,en-GB;q=0.7,en-US;q=0.6","""","""","""","""","""","""",<p class='attract'>以下有两个圆圈，一个代表你自己，一个代表刚刚你想象中的她，重叠部分代表你们的亲密程度，\n                              重叠部分越大代表你们之间越亲密，请选择以下哪个可以代表你们之间的亲密度</p>\n                              <img src='distance.png' width=85%>,0,distance,""""
"""",789,instructions,148,531860,0.0-6.0-4.22,135,1,2023/12/21 8:34,88e23e57077159ed4f24370af8da4c16,223.104.160.72,"Mozilla/5.0 (Windows NT 10.0; Win64; x64) AppleWebKit/537.36 (KHTML, like Gecko) Chrome/120.0.0.0 Safari/537.36 Edg/120.0.0.0",WebKit,Edge,120.0.0.0,Windows,10,null,"zh-CN,zh;q=0.9,en;q=0.8,en-GB;q=0.7,en-US;q=0.6","""","""","""","""","""","[{""page_index"":0,""viewing_time"":789}]","""","""","""",""""
"""",3957,html-button-response,149,535820,0.0-6.0-5.22,135,1,2023/12/21 8:34,88e23e57077159ed4f24370af8da4c16,223.104.160.72,"Mozilla/5.0 (Windows NT 10.0; Win64; x64) AppleWebKit/537.36 (KHTML, like Gecko) Chrome/120.0.0.0 Safari/537.36 Edg/120.0.0.0",WebKit,Edge,120.0.0.0,Windows,10,null,"zh-CN,zh;q=0.9,en;q=0.8,en-GB;q=0.7,en-US;q=0.6","""","""","""","""","""","""",<img src='nmj-7.jpg'>\n                          <p class='attract'>该异性对您来说吸引力评分是</p>\n                          <p class='tips'>(1代表吸引力非常小，9代表吸引力非常大)</p>,1,post_test,nmj-7.jpg
"""",null,html-keyboard-response,150,536323,0.0-6.0-0.23,135,1,2023/12/21 8:34,88e23e57077159ed4f24370af8da4c16,223.104.160.72,"Mozilla/5.0 (Windows NT 10.0; Win64; x64) AppleWebKit/537.36 (KHTML, like Gecko) Chrome/120.0.0.0 Safari/537.36 Edg/120.0.0.0",WebKit,Edge,120.0.0.0,Windows,10,null,"zh-CN,zh;q=0.9,en;q=0.8,en-GB;q=0.7,en-US;q=0.6","""","""","""","""","""","""",+,null,"""",""""
"""",3558,html-button-response,151,539884,0.0-6.0-1.23,135,1,2023/12/21 8:34,88e23e57077159ed4f24370af8da4c16,223.104.160.72,"Mozilla/5.0 (Windows NT 10.0; Win64; x64) AppleWebKit/537.36 (KHTML, like Gecko) Chrome/120.0.0.0 Safari/537.36 Edg/120.0.0.0",WebKit,Edge,120.0.0.0,Windows,10,null,"zh-CN,zh;q=0.9,en;q=0.8,en-GB;q=0.7,en-US;q=0.6","""","""","""","""","""","""",<img src='lmj-3.png'>\n                              <p class='attract'>该异性对您来说吸引力评分是</p>\n                              <p class='tips'>(1代表吸引力非常小，9代表吸引力非常大)</p>,1,pre_test,lmj-3.png
"""",1454,instructions,152,541341,0.0-6.0-2.23,135,1,2023/12/21 8:34,88e23e57077159ed4f24370af8da4c16,223.104.160.72,"Mozilla/5.0 (Windows NT 10.0; Win64; x64) AppleWebKit/537.36 (KHTML, like Gecko) Chrome/120.0.0.0 Safari/537.36 Edg/120.0.0.0",WebKit,Edge,120.0.0.0,Windows,10,null,"zh-CN,zh;q=0.9,en;q=0.8,en-GB;q=0.7,en-US;q=0.6","""","""","""","""","""","[{""page_index"":0,""viewing_time"":1454}]","""","""",喜欢的明星/小说人物,""""
"""",1565,html-button-response,153,542908,0.0-6.0-3.23,135,1,2023/12/21 8:34,88e23e57077159ed4f24370af8da4c16,223.104.160.72,"Mozilla/5.0 (Windows NT 10.0; Win64; x64) AppleWebKit/537.36 (KHTML, like Gecko) Chrome/120.0.0.0 Safari/537.36 Edg/120.0.0.0",WebKit,Edge,120.0.0.0,Windows,10,null,"zh-CN,zh;q=0.9,en;q=0.8,en-GB;q=0.7,en-US;q=0.6","""","""","""","""","""","""",<p class='attract'>以下有两个圆圈，一个代表你自己，一个代表刚刚你想象中的她，重叠部分代表你们的亲密程度，\n                              重叠部分越大代表你们之间越亲密，请选择以下哪个可以代表你们之间的亲密度</p>\n                              <img src='distance.png' width=85%>,1,distance,""""
"""",1054,instructions,154,543964,0.0-6.0-4.23,135,1,2023/12/21 8:34,88e23e57077159ed4f24370af8da4c16,223.104.160.72,"Mozilla/5.0 (Windows NT 10.0; Win64; x64) AppleWebKit/537.36 (KHTML, like Gecko) Chrome/120.0.0.0 Safari/537.36 Edg/120.0.0.0",WebKit,Edge,120.0.0.0,Windows,10,null,"zh-CN,zh;q=0.9,en;q=0.8,en-GB;q=0.7,en-US;q=0.6","""","""","""","""","""","[{""page_index"":0,""viewing_time"":1054}]","""","""","""",""""
"""",1701,html-button-response,155,545668,0.0-6.0-5.23,135,1,2023/12/21 8:34,88e23e57077159ed4f24370af8da4c16,223.104.160.72,"Mozilla/5.0 (Windows NT 10.0; Win64; x64) AppleWebKit/537.36 (KHTML, like Gecko) Chrome/120.0.0.0 Safari/537.36 Edg/120.0.0.0",WebKit,Edge,120.0.0.0,Windows,10,null,"zh-CN,zh;q=0.9,en;q=0.8,en-GB;q=0.7,en-US;q=0.6","""","""","""","""","""","""",<img src='lmj-3.png'>\n                          <p class='attract'>该异性对您来说吸引力评分是</p>\n                          <p class='tips'>(1代表吸引力非常小，9代表吸引力非常大)</p>,0,post_test,lmj-3.png
"""",null,html-keyboard-response,156,546172,0.0-6.0-0.24,135,1,2023/12/21 8:34,88e23e57077159ed4f24370af8da4c16,223.104.160.72,"Mozilla/5.0 (Windows NT 10.0; Win64; x64) AppleWebKit/537.36 (KHTML, like Gecko) Chrome/120.0.0.0 Safari/537.36 Edg/120.0.0.0",WebKit,Edge,120.0.0.0,Windows,10,null,"zh-CN,zh;q=0.9,en;q=0.8,en-GB;q=0.7,en-US;q=0.6","""","""","""","""","""","""",+,null,"""",""""
"""",2589,html-button-response,157,548764,0.0-6.0-1.24,135,1,2023/12/21 8:34,88e23e57077159ed4f24370af8da4c16,223.104.160.72,"Mozilla/5.0 (Windows NT 10.0; Win64; x64) AppleWebKit/537.36 (KHTML, like Gecko) Chrome/120.0.0.0 Safari/537.36 Edg/120.0.0.0",WebKit,Edge,120.0.0.0,Windows,10,null,"zh-CN,zh;q=0.9,en;q=0.8,en-GB;q=0.7,en-US;q=0.6","""","""","""","""","""","""",<img src='nmj-8.jpg'>\n                              <p class='attract'>该异性对您来说吸引力评分是</p>\n                              <p class='tips'>(1代表吸引力非常小，9代表吸引力非常大)</p>,0,pre_test,nmj-8.jpg
"""",853,instructions,158,549620,0.0-6.0-2.24,135,1,2023/12/21 8:34,88e23e57077159ed4f24370af8da4c16,223.104.160.72,"Mozilla/5.0 (Windows NT 10.0; Win64; x64) AppleWebKit/537.36 (KHTML, like Gecko) Chrome/120.0.0.0 Safari/537.36 Edg/120.0.0.0",WebKit,Edge,120.0.0.0,Windows,10,null,"zh-CN,zh;q=0.9,en;q=0.8,en-GB;q=0.7,en-US;q=0.6","""","""","""","""","""","[{""page_index"":0,""viewing_time"":853}]","""","""",素不相识,""""
"""",1246,html-button-response,159,550868,0.0-6.0-3.24,135,1,2023/12/21 8:34,88e23e57077159ed4f24370af8da4c16,223.104.160.72,"Mozilla/5.0 (Windows NT 10.0; Win64; x64) AppleWebKit/537.36 (KHTML, like Gecko) Chrome/120.0.0.0 Safari/537.36 Edg/120.0.0.0",WebKit,Edge,120.0.0.0,Windows,10,null,"zh-CN,zh;q=0.9,en;q=0.8,en-GB;q=0.7,en-US;q=0.6","""","""","""","""","""","""",<p class='attract'>以下有两个圆圈，一个代表你自己，一个代表刚刚你想象中的她，重叠部分代表你们的亲密程度，\n                              重叠部分越大代表你们之间越亲密，请选择以下哪个可以代表你们之间的亲密度</p>\n                              <img src='distance.png' width=85%>,1,distance,""""
"""",1309,instructions,160,552180,0.0-6.0-4.24,135,1,2023/12/21 8:34,88e23e57077159ed4f24370af8da4c16,223.104.160.72,"Mozilla/5.0 (Windows NT 10.0; Win64; x64) AppleWebKit/537.36 (KHTML, like Gecko) Chrome/120.0.0.0 Safari/537.36 Edg/120.0.0.0",WebKit,Edge,120.0.0.0,Windows,10,null,"zh-CN,zh;q=0.9,en;q=0.8,en-GB;q=0.7,en-US;q=0.6","""","""","""","""","""","[{""page_index"":0,""viewing_time"":1309}]","""","""","""",""""
"""",973,html-button-response,161,553156,0.0-6.0-5.24,135,1,2023/12/21 8:34,88e23e57077159ed4f24370af8da4c16,223.104.160.72,"Mozilla/5.0 (Windows NT 10.0; Win64; x64) AppleWebKit/537.36 (KHTML, like Gecko) Chrome/120.0.0.0 Safari/537.36 Edg/120.0.0.0",WebKit,Edge,120.0.0.0,Windows,10,null,"zh-CN,zh;q=0.9,en;q=0.8,en-GB;q=0.7,en-US;q=0.6","""","""","""","""","""","""",<img src='nmj-8.jpg'>\n                          <p class='attract'>该异性对您来说吸引力评分是</p>\n                          <p class='tips'>(1代表吸引力非常小，9代表吸引力非常大)</p>,0,post_test,nmj-8.jpg
"""",null,html-keyboard-response,162,553659,0.0-6.0-0.25,135,1,2023/12/21 8:34,88e23e57077159ed4f24370af8da4c16,223.104.160.72,"Mozilla/5.0 (Windows NT 10.0; Win64; x64) AppleWebKit/537.36 (KHTML, like Gecko) Chrome/120.0.0.0 Safari/537.36 Edg/120.0.0.0",WebKit,Edge,120.0.0.0,Windows,10,null,"zh-CN,zh;q=0.9,en;q=0.8,en-GB;q=0.7,en-US;q=0.6","""","""","""","""","""","""",+,null,"""",""""
"""",2887,html-button-response,163,556548,0.0-6.0-1.25,135,1,2023/12/21 8:34,88e23e57077159ed4f24370af8da4c16,223.104.160.72,"Mozilla/5.0 (Windows NT 10.0; Win64; x64) AppleWebKit/537.36 (KHTML, like Gecko) Chrome/120.0.0.0 Safari/537.36 Edg/120.0.0.0",WebKit,Edge,120.0.0.0,Windows,10,null,"zh-CN,zh;q=0.9,en;q=0.8,en-GB;q=0.7,en-US;q=0.6","""","""","""","""","""","""",<img src='lmj-3.png'>\n                              <p class='attract'>该异性对您来说吸引力评分是</p>\n                              <p class='tips'>(1代表吸引力非常小，9代表吸引力非常大)</p>,1,pre_test,lmj-3.png
"""",1381,instructions,164,557932,0.0-6.0-2.25,135,1,2023/12/21 8:34,88e23e57077159ed4f24370af8da4c16,223.104.160.72,"Mozilla/5.0 (Windows NT 10.0; Win64; x64) AppleWebKit/537.36 (KHTML, like Gecko) Chrome/120.0.0.0 Safari/537.36 Edg/120.0.0.0",WebKit,Edge,120.0.0.0,Windows,10,null,"zh-CN,zh;q=0.9,en;q=0.8,en-GB;q=0.7,en-US;q=0.6","""","""","""","""","""","[{""page_index"":0,""viewing_time"":1381}]","""","""",闺蜜,""""
"""",4837,html-button-response,165,562773,0.0-6.0-3.25,135,1,2023/12/21 8:34,88e23e57077159ed4f24370af8da4c16,223.104.160.72,"Mozilla/5.0 (Windows NT 10.0; Win64; x64) AppleWebKit/537.36 (KHTML, like Gecko) Chrome/120.0.0.0 Safari/537.36 Edg/120.0.0.0",WebKit,Edge,120.0.0.0,Windows,10,null,"zh-CN,zh;q=0.9,en;q=0.8,en-GB;q=0.7,en-US;q=0.6","""","""","""","""","""","""",<p class='attract'>以下有两个圆圈，一个代表你自己，一个代表刚刚你想象中的她，重叠部分代表你们的亲密程度，\n                              重叠部分越大代表你们之间越亲密，请选择以下哪个可以代表你们之间的亲密度</p>\n                              <img src='distance.png' width=85%>,1,distance,""""
"""",1166,instructions,166,563941,0.0-6.0-4.25,135,1,2023/12/21 8:34,88e23e57077159ed4f24370af8da4c16,223.104.160.72,"Mozilla/5.0 (Windows NT 10.0; Win64; x64) AppleWebKit/537.36 (KHTML, like Gecko) Chrome/120.0.0.0 Safari/537.36 Edg/120.0.0.0",WebKit,Edge,120.0.0.0,Windows,10,null,"zh-CN,zh;q=0.9,en;q=0.8,en-GB;q=0.7,en-US;q=0.6","""","""","""","""","""","[{""page_index"":0,""viewing_time"":1166}]","""","""","""",""""
"""",1653,html-button-response,167,565596,0.0-6.0-5.25,135,1,2023/12/21 8:34,88e23e57077159ed4f24370af8da4c16,223.104.160.72,"Mozilla/5.0 (Windows NT 10.0; Win64; x64) AppleWebKit/537.36 (KHTML, like Gecko) Chrome/120.0.0.0 Safari/537.36 Edg/120.0.0.0",WebKit,Edge,120.0.0.0,Windows,10,null,"zh-CN,zh;q=0.9,en;q=0.8,en-GB;q=0.7,en-US;q=0.6","""","""","""","""","""","""",<img src='lmj-3.png'>\n                          <p class='attract'>该异性对您来说吸引力评分是</p>\n                          <p class='tips'>(1代表吸引力非常小，9代表吸引力非常大)</p>,0,post_test,lmj-3.png
"""",null,html-keyboard-response,168,566099,0.0-6.0-0.26,135,1,2023/12/21 8:34,88e23e57077159ed4f24370af8da4c16,223.104.160.72,"Mozilla/5.0 (Windows NT 10.0; Win64; x64) AppleWebKit/537.36 (KHTML, like Gecko) Chrome/120.0.0.0 Safari/537.36 Edg/120.0.0.0",WebKit,Edge,120.0.0.0,Windows,10,null,"zh-CN,zh;q=0.9,en;q=0.8,en-GB;q=0.7,en-US;q=0.6","""","""","""","""","""","""",+,null,"""",""""
"""",5525,html-button-response,169,571628,0.0-6.0-1.26,135,1,2023/12/21 8:34,88e23e57077159ed4f24370af8da4c16,223.104.160.72,"Mozilla/5.0 (Windows NT 10.0; Win64; x64) AppleWebKit/537.36 (KHTML, like Gecko) Chrome/120.0.0.0 Safari/537.36 Edg/120.0.0.0",WebKit,Edge,120.0.0.0,Windows,10,null,"zh-CN,zh;q=0.9,en;q=0.8,en-GB;q=0.7,en-US;q=0.6","""","""","""","""","""","""",<img src='nmj-7.jpg'>\n                              <p class='attract'>该异性对您来说吸引力评分是</p>\n                              <p class='tips'>(1代表吸引力非常小，9代表吸引力非常大)</p>,1,pre_test,nmj-7.jpg
"""",1022,instructions,170,572652,0.0-6.0-2.26,135,1,2023/12/21 8:34,88e23e57077159ed4f24370af8da4c16,223.104.160.72,"Mozilla/5.0 (Windows NT 10.0; Win64; x64) AppleWebKit/537.36 (KHTML, like Gecko) Chrome/120.0.0.0 Safari/537.36 Edg/120.0.0.0",WebKit,Edge,120.0.0.0,Windows,10,null,"zh-CN,zh;q=0.9,en;q=0.8,en-GB;q=0.7,en-US;q=0.6","""","""","""","""","""","[{""page_index"":0,""viewing_time"":1022}]","""","""",闺蜜,""""
"""",6509,html-button-response,171,579165,0.0-6.0-3.26,135,1,2023/12/21 8:34,88e23e57077159ed4f24370af8da4c16,223.104.160.72,"Mozilla/5.0 (Windows NT 10.0; Win64; x64) AppleWebKit/537.36 (KHTML, like Gecko) Chrome/120.0.0.0 Safari/537.36 Edg/120.0.0.0",WebKit,Edge,120.0.0.0,Windows,10,null,"zh-CN,zh;q=0.9,en;q=0.8,en-GB;q=0.7,en-US;q=0.6","""","""","""","""","""","""",<p class='attract'>以下有两个圆圈，一个代表你自己，一个代表刚刚你想象中的她，重叠部分代表你们的亲密程度，\n                              重叠部分越大代表你们之间越亲密，请选择以下哪个可以代表你们之间的亲密度</p>\n                              <img src='distance.png' width=85%>,1,distance,""""
"""",1061,instructions,172,580229,0.0-6.0-4.26,135,1,2023/12/21 8:34,88e23e57077159ed4f24370af8da4c16,223.104.160.72,"Mozilla/5.0 (Windows NT 10.0; Win64; x64) AppleWebKit/537.36 (KHTML, like Gecko) Chrome/120.0.0.0 Safari/537.36 Edg/120.0.0.0",WebKit,Edge,120.0.0.0,Windows,10,null,"zh-CN,zh;q=0.9,en;q=0.8,en-GB;q=0.7,en-US;q=0.6","""","""","""","""","""","[{""page_index"":0,""viewing_time"":1061}]","""","""","""",""""
"""",2285,html-button-response,173,582517,0.0-6.0-5.26,135,1,2023/12/21 8:34,88e23e57077159ed4f24370af8da4c16,223.104.160.72,"Mozilla/5.0 (Windows NT 10.0; Win64; x64) AppleWebKit/537.36 (KHTML, like Gecko) Chrome/120.0.0.0 Safari/537.36 Edg/120.0.0.0",WebKit,Edge,120.0.0.0,Windows,10,null,"zh-CN,zh;q=0.9,en;q=0.8,en-GB;q=0.7,en-US;q=0.6","""","""","""","""","""","""",<img src='nmj-7.jpg'>\n                          <p class='attract'>该异性对您来说吸引力评分是</p>\n                          <p class='tips'>(1代表吸引力非常小，9代表吸引力非常大)</p>,1,post_test,nmj-7.jpg
"""",null,html-keyboard-response,174,583020,0.0-6.0-0.27,135,1,2023/12/21 8:34,88e23e57077159ed4f24370af8da4c16,223.104.160.72,"Mozilla/5.0 (Windows NT 10.0; Win64; x64) AppleWebKit/537.36 (KHTML, like Gecko) Chrome/120.0.0.0 Safari/537.36 Edg/120.0.0.0",WebKit,Edge,120.0.0.0,Windows,10,null,"zh-CN,zh;q=0.9,en;q=0.8,en-GB;q=0.7,en-US;q=0.6","""","""","""","""","""","""",+,null,"""",""""
"""",6605,html-button-response,175,589628,0.0-6.0-1.27,135,1,2023/12/21 8:34,88e23e57077159ed4f24370af8da4c16,223.104.160.72,"Mozilla/5.0 (Windows NT 10.0; Win64; x64) AppleWebKit/537.36 (KHTML, like Gecko) Chrome/120.0.0.0 Safari/537.36 Edg/120.0.0.0",WebKit,Edge,120.0.0.0,Windows,10,null,"zh-CN,zh;q=0.9,en;q=0.8,en-GB;q=0.7,en-US;q=0.6","""","""","""","""","""","""",<img src='nma-5.jpg'>\n                              <p class='attract'>该异性对您来说吸引力评分是</p>\n                              <p class='tips'>(1代表吸引力非常小，9代表吸引力非常大)</p>,1,pre_test,nma-5.jpg
"""",798,instructions,176,590428,0.0-6.0-2.27,135,1,2023/12/21 8:34,88e23e57077159ed4f24370af8da4c16,223.104.160.72,"Mozilla/5.0 (Windows NT 10.0; Win64; x64) AppleWebKit/537.36 (KHTML, like Gecko) Chrome/120.0.0.0 Safari/537.36 Edg/120.0.0.0",WebKit,Edge,120.0.0.0,Windows,10,null,"zh-CN,zh;q=0.9,en;q=0.8,en-GB;q=0.7,en-US;q=0.6","""","""","""","""","""","[{""page_index"":0,""viewing_time"":797}]","""","""",闺蜜,""""
"""",2829,html-button-response,177,593260,0.0-6.0-3.27,135,1,2023/12/21 8:34,88e23e57077159ed4f24370af8da4c16,223.104.160.72,"Mozilla/5.0 (Windows NT 10.0; Win64; x64) AppleWebKit/537.36 (KHTML, like Gecko) Chrome/120.0.0.0 Safari/537.36 Edg/120.0.0.0",WebKit,Edge,120.0.0.0,Windows,10,null,"zh-CN,zh;q=0.9,en;q=0.8,en-GB;q=0.7,en-US;q=0.6","""","""","""","""","""","""",<p class='attract'>以下有两个圆圈，一个代表你自己，一个代表刚刚你想象中的她，重叠部分代表你们的亲密程度，\n                              重叠部分越大代表你们之间越亲密，请选择以下哪个可以代表你们之间的亲密度</p>\n                              <img src='distance.png' width=85%>,2,distance,""""
"""",1053,instructions,178,594316,0.0-6.0-4.27,135,1,2023/12/21 8:34,88e23e57077159ed4f24370af8da4c16,223.104.160.72,"Mozilla/5.0 (Windows NT 10.0; Win64; x64) AppleWebKit/537.36 (KHTML, like Gecko) Chrome/120.0.0.0 Safari/537.36 Edg/120.0.0.0",WebKit,Edge,120.0.0.0,Windows,10,null,"zh-CN,zh;q=0.9,en;q=0.8,en-GB;q=0.7,en-US;q=0.6","""","""","""","""","""","[{""page_index"":0,""viewing_time"":1053}]","""","""","""",""""
"""",1509,html-button-response,179,595828,0.0-6.0-5.27,135,1,2023/12/21 8:34,88e23e57077159ed4f24370af8da4c16,223.104.160.72,"Mozilla/5.0 (Windows NT 10.0; Win64; x64) AppleWebKit/537.36 (KHTML, like Gecko) Chrome/120.0.0.0 Safari/537.36 Edg/120.0.0.0",WebKit,Edge,120.0.0.0,Windows,10,null,"zh-CN,zh;q=0.9,en;q=0.8,en-GB;q=0.7,en-US;q=0.6","""","""","""","""","""","""",<img src='nma-5.jpg'>\n                          <p class='attract'>该异性对您来说吸引力评分是</p>\n                          <p class='tips'>(1代表吸引力非常小，9代表吸引力非常大)</p>,4,post_test,nma-5.jpg
"""",null,html-keyboard-response,180,596341,0.0-6.0-0.28,135,1,2023/12/21 8:34,88e23e57077159ed4f24370af8da4c16,223.104.160.72,"Mozilla/5.0 (Windows NT 10.0; Win64; x64) AppleWebKit/537.36 (KHTML, like Gecko) Chrome/120.0.0.0 Safari/537.36 Edg/120.0.0.0",WebKit,Edge,120.0.0.0,Windows,10,null,"zh-CN,zh;q=0.9,en;q=0.8,en-GB;q=0.7,en-US;q=0.6","""","""","""","""","""","""",+,null,"""",""""
"""",8636,html-button-response,181,604981,0.0-6.0-1.28,135,1,2023/12/21 8:34,88e23e57077159ed4f24370af8da4c16,223.104.160.72,"Mozilla/5.0 (Windows NT 10.0; Win64; x64) AppleWebKit/537.36 (KHTML, like Gecko) Chrome/120.0.0.0 Safari/537.36 Edg/120.0.0.0",WebKit,Edge,120.0.0.0,Windows,10,null,"zh-CN,zh;q=0.9,en;q=0.8,en-GB;q=0.7,en-US;q=0.6","""","""","""","""","""","""",<img src='lma-2.jpg'>\n                              <p class='attract'>该异性对您来说吸引力评分是</p>\n                              <p class='tips'>(1代表吸引力非常小，9代表吸引力非常大)</p>,1,pre_test,lma-2.jpg
"""",1013,instructions,182,605997,0.0-6.0-2.28,135,1,2023/12/21 8:34,88e23e57077159ed4f24370af8da4c16,223.104.160.72,"Mozilla/5.0 (Windows NT 10.0; Win64; x64) AppleWebKit/537.36 (KHTML, like Gecko) Chrome/120.0.0.0 Safari/537.36 Edg/120.0.0.0",WebKit,Edge,120.0.0.0,Windows,10,null,"zh-CN,zh;q=0.9,en;q=0.8,en-GB;q=0.7,en-US;q=0.6","""","""","""","""","""","[{""page_index"":0,""viewing_time"":1013}]","""","""",素不相识,""""
"""",597,html-button-response,183,606597,0.0-6.0-3.28,135,1,2023/12/21 8:34,88e23e57077159ed4f24370af8da4c16,223.104.160.72,"Mozilla/5.0 (Windows NT 10.0; Win64; x64) AppleWebKit/537.36 (KHTML, like Gecko) Chrome/120.0.0.0 Safari/537.36 Edg/120.0.0.0",WebKit,Edge,120.0.0.0,Windows,10,null,"zh-CN,zh;q=0.9,en;q=0.8,en-GB;q=0.7,en-US;q=0.6","""","""","""","""","""","""",<p class='attract'>以下有两个圆圈，一个代表你自己，一个代表刚刚你想象中的她，重叠部分代表你们的亲密程度，\n                              重叠部分越大代表你们之间越亲密，请选择以下哪个可以代表你们之间的亲密度</p>\n                              <img src='distance.png' width=85%>,0,distance,""""
"""",1021,instructions,184,607621,0.0-6.0-4.28,135,1,2023/12/21 8:34,88e23e57077159ed4f24370af8da4c16,223.104.160.72,"Mozilla/5.0 (Windows NT 10.0; Win64; x64) AppleWebKit/537.36 (KHTML, like Gecko) Chrome/120.0.0.0 Safari/537.36 Edg/120.0.0.0",WebKit,Edge,120.0.0.0,Windows,10,null,"zh-CN,zh;q=0.9,en;q=0.8,en-GB;q=0.7,en-US;q=0.6","""","""","""","""","""","[{""page_index"":0,""viewing_time"":1020}]","""","""","""",""""
"""",717,html-button-response,185,608341,0.0-6.0-5.28,135,1,2023/12/21 8:34,88e23e57077159ed4f24370af8da4c16,223.104.160.72,"Mozilla/5.0 (Windows NT 10.0; Win64; x64) AppleWebKit/537.36 (KHTML, like Gecko) Chrome/120.0.0.0 Safari/537.36 Edg/120.0.0.0",WebKit,Edge,120.0.0.0,Windows,10,null,"zh-CN,zh;q=0.9,en;q=0.8,en-GB;q=0.7,en-US;q=0.6","""","""","""","""","""","""",<img src='lma-2.jpg'>\n                          <p class='attract'>该异性对您来说吸引力评分是</p>\n                          <p class='tips'>(1代表吸引力非常小，9代表吸引力非常大)</p>,2,post_test,lma-2.jpg
"""",null,html-keyboard-response,186,608859,0.0-6.0-0.29,135,1,2023/12/21 8:34,88e23e57077159ed4f24370af8da4c16,223.104.160.72,"Mozilla/5.0 (Windows NT 10.0; Win64; x64) AppleWebKit/537.36 (KHTML, like Gecko) Chrome/120.0.0.0 Safari/537.36 Edg/120.0.0.0",WebKit,Edge,120.0.0.0,Windows,10,null,"zh-CN,zh;q=0.9,en;q=0.8,en-GB;q=0.7,en-US;q=0.6","""","""","""","""","""","""",+,null,"""",""""
"""",1839,html-button-response,187,610701,0.0-6.0-1.29,135,1,2023/12/21 8:34,88e23e57077159ed4f24370af8da4c16,223.104.160.72,"Mozilla/5.0 (Windows NT 10.0; Win64; x64) AppleWebKit/537.36 (KHTML, like Gecko) Chrome/120.0.0.0 Safari/537.36 Edg/120.0.0.0",WebKit,Edge,120.0.0.0,Windows,10,null,"zh-CN,zh;q=0.9,en;q=0.8,en-GB;q=0.7,en-US;q=0.6","""","""","""","""","""","""",<img src='pma-10.png'>\n                              <p class='attract'>该异性对您来说吸引力评分是</p>\n                              <p class='tips'>(1代表吸引力非常小，9代表吸引力非常大)</p>,1,pre_test,pma-10.png
"""",1093,instructions,188,611797,0.0-6.0-2.29,135,1,2023/12/21 8:34,88e23e57077159ed4f24370af8da4c16,223.104.160.72,"Mozilla/5.0 (Windows NT 10.0; Win64; x64) AppleWebKit/537.36 (KHTML, like Gecko) Chrome/120.0.0.0 Safari/537.36 Edg/120.0.0.0",WebKit,Edge,120.0.0.0,Windows,10,null,"zh-CN,zh;q=0.9,en;q=0.8,en-GB;q=0.7,en-US;q=0.6","""","""","""","""","""","[{""page_index"":0,""viewing_time"":1093}]","""","""",喜欢的明星/小说人物,""""
"""",1421,html-button-response,189,613221,0.0-6.0-3.29,135,1,2023/12/21 8:34,88e23e57077159ed4f24370af8da4c16,223.104.160.72,"Mozilla/5.0 (Windows NT 10.0; Win64; x64) AppleWebKit/537.36 (KHTML, like Gecko) Chrome/120.0.0.0 Safari/537.36 Edg/120.0.0.0",WebKit,Edge,120.0.0.0,Windows,10,null,"zh-CN,zh;q=0.9,en;q=0.8,en-GB;q=0.7,en-US;q=0.6","""","""","""","""","""","""",<p class='attract'>以下有两个圆圈，一个代表你自己，一个代表刚刚你想象中的她，重叠部分代表你们的亲密程度，\n                              重叠部分越大代表你们之间越亲密，请选择以下哪个可以代表你们之间的亲密度</p>\n                              <img src='distance.png' width=85%>,1,distance,""""
"""",965,instructions,190,614189,0.0-6.0-4.29,135,1,2023/12/21 8:34,88e23e57077159ed4f24370af8da4c16,223.104.160.72,"Mozilla/5.0 (Windows NT 10.0; Win64; x64) AppleWebKit/537.36 (KHTML, like Gecko) Chrome/120.0.0.0 Safari/537.36 Edg/120.0.0.0",WebKit,Edge,120.0.0.0,Windows,10,null,"zh-CN,zh;q=0.9,en;q=0.8,en-GB;q=0.7,en-US;q=0.6","""","""","""","""","""","[{""page_index"":0,""viewing_time"":965}]","""","""","""",""""
"""",2949,html-button-response,191,617141,0.0-6.0-5.29,135,1,2023/12/21 8:34,88e23e57077159ed4f24370af8da4c16,223.104.160.72,"Mozilla/5.0 (Windows NT 10.0; Win64; x64) AppleWebKit/537.36 (KHTML, like Gecko) Chrome/120.0.0.0 Safari/537.36 Edg/120.0.0.0",WebKit,Edge,120.0.0.0,Windows,10,null,"zh-CN,zh;q=0.9,en;q=0.8,en-GB;q=0.7,en-US;q=0.6","""","""","""","""","""","""",<img src='pma-10.png'>\n                          <p class='attract'>该异性对您来说吸引力评分是</p>\n                          <p class='tips'>(1代表吸引力非常小，9代表吸引力非常大)</p>,4,post_test,pma-10.png
"""",null,html-keyboard-response,192,617645,0.0-6.0-0.30,135,1,2023/12/21 8:34,88e23e57077159ed4f24370af8da4c16,223.104.160.72,"Mozilla/5.0 (Windows NT 10.0; Win64; x64) AppleWebKit/537.36 (KHTML, like Gecko) Chrome/120.0.0.0 Safari/537.36 Edg/120.0.0.0",WebKit,Edge,120.0.0.0,Windows,10,null,"zh-CN,zh;q=0.9,en;q=0.8,en-GB;q=0.7,en-US;q=0.6","""","""","""","""","""","""",+,null,"""",""""
"""",2781,html-button-response,193,620429,0.0-6.0-1.30,135,1,2023/12/21 8:34,88e23e57077159ed4f24370af8da4c16,223.104.160.72,"Mozilla/5.0 (Windows NT 10.0; Win64; x64) AppleWebKit/537.36 (KHTML, like Gecko) Chrome/120.0.0.0 Safari/537.36 Edg/120.0.0.0",WebKit,Edge,120.0.0.0,Windows,10,null,"zh-CN,zh;q=0.9,en;q=0.8,en-GB;q=0.7,en-US;q=0.6","""","""","""","""","""","""",<img src='nma-6.png'>\n                              <p class='attract'>该异性对您来说吸引力评分是</p>\n                              <p class='tips'>(1代表吸引力非常小，9代表吸引力非常大)</p>,2,pre_test,nma-6.png
"""",830,instructions,194,621261,0.0-6.0-2.30,135,1,2023/12/21 8:34,88e23e57077159ed4f24370af8da4c16,223.104.160.72,"Mozilla/5.0 (Windows NT 10.0; Win64; x64) AppleWebKit/537.36 (KHTML, like Gecko) Chrome/120.0.0.0 Safari/537.36 Edg/120.0.0.0",WebKit,Edge,120.0.0.0,Windows,10,null,"zh-CN,zh;q=0.9,en;q=0.8,en-GB;q=0.7,en-US;q=0.6","""","""","""","""","""","[{""page_index"":0,""viewing_time"":829}]","""","""",闺蜜,""""
"""",1365,html-button-response,195,622629,0.0-6.0-3.30,135,1,2023/12/21 8:34,88e23e57077159ed4f24370af8da4c16,223.104.160.72,"Mozilla/5.0 (Windows NT 10.0; Win64; x64) AppleWebKit/537.36 (KHTML, like Gecko) Chrome/120.0.0.0 Safari/537.36 Edg/120.0.0.0",WebKit,Edge,120.0.0.0,Windows,10,null,"zh-CN,zh;q=0.9,en;q=0.8,en-GB;q=0.7,en-US;q=0.6","""","""","""","""","""","""",<p class='attract'>以下有两个圆圈，一个代表你自己，一个代表刚刚你想象中的她，重叠部分代表你们的亲密程度，\n                              重叠部分越大代表你们之间越亲密，请选择以下哪个可以代表你们之间的亲密度</p>\n                              <img src='distance.png' width=85%>,3,distance,""""
"""",965,instructions,196,623597,0.0-6.0-4.30,135,1,2023/12/21 8:34,88e23e57077159ed4f24370af8da4c16,223.104.160.72,"Mozilla/5.0 (Windows NT 10.0; Win64; x64) AppleWebKit/537.36 (KHTML, like Gecko) Chrome/120.0.0.0 Safari/537.36 Edg/120.0.0.0",WebKit,Edge,120.0.0.0,Windows,10,null,"zh-CN,zh;q=0.9,en;q=0.8,en-GB;q=0.7,en-US;q=0.6","""","""","""","""","""","[{""page_index"":0,""viewing_time"":964}]","""","""","""",""""
"""",1740,html-button-response,197,625341,0.0-6.0-5.30,135,1,2023/12/21 8:34,88e23e57077159ed4f24370af8da4c16,223.104.160.72,"Mozilla/5.0 (Windows NT 10.0; Win64; x64) AppleWebKit/537.36 (KHTML, like Gecko) Chrome/120.0.0.0 Safari/537.36 Edg/120.0.0.0",WebKit,Edge,120.0.0.0,Windows,10,null,"zh-CN,zh;q=0.9,en;q=0.8,en-GB;q=0.7,en-US;q=0.6","""","""","""","""","""","""",<img src='nma-6.png'>\n                          <p class='attract'>该异性对您来说吸引力评分是</p>\n                          <p class='tips'>(1代表吸引力非常小，9代表吸引力非常大)</p>,5,post_test,nma-6.png
"""",null,html-keyboard-response,198,625845,0.0-6.0-0.31,135,1,2023/12/21 8:34,88e23e57077159ed4f24370af8da4c16,223.104.160.72,"Mozilla/5.0 (Windows NT 10.0; Win64; x64) AppleWebKit/537.36 (KHTML, like Gecko) Chrome/120.0.0.0 Safari/537.36 Edg/120.0.0.0",WebKit,Edge,120.0.0.0,Windows,10,null,"zh-CN,zh;q=0.9,en;q=0.8,en-GB;q=0.7,en-US;q=0.6","""","""","""","""","""","""",+,null,"""",""""
"""",3980,html-button-response,199,629829,0.0-6.0-1.31,135,1,2023/12/21 8:34,88e23e57077159ed4f24370af8da4c16,223.104.160.72,"Mozilla/5.0 (Windows NT 10.0; Win64; x64) AppleWebKit/537.36 (KHTML, like Gecko) Chrome/120.0.0.0 Safari/537.36 Edg/120.0.0.0",WebKit,Edge,120.0.0.0,Windows,10,null,"zh-CN,zh;q=0.9,en;q=0.8,en-GB;q=0.7,en-US;q=0.6","""","""","""","""","""","""",<img src='nmj-7.jpg'>\n                              <p class='attract'>该异性对您来说吸引力评分是</p>\n                              <p class='tips'>(1代表吸引力非常小，9代表吸引力非常大)</p>,2,pre_test,nmj-7.jpg
"""",829,instructions,200,630661,0.0-6.0-2.31,135,1,2023/12/21 8:34,88e23e57077159ed4f24370af8da4c16,223.104.160.72,"Mozilla/5.0 (Windows NT 10.0; Win64; x64) AppleWebKit/537.36 (KHTML, like Gecko) Chrome/120.0.0.0 Safari/537.36 Edg/120.0.0.0",WebKit,Edge,120.0.0.0,Windows,10,null,"zh-CN,zh;q=0.9,en;q=0.8,en-GB;q=0.7,en-US;q=0.6","""","""","""","""","""","[{""page_index"":0,""viewing_time"":829}]","""","""",喜欢的明星/小说人物,""""
"""",1101,html-button-response,201,631765,0.0-6.0-3.31,135,1,2023/12/21 8:34,88e23e57077159ed4f24370af8da4c16,223.104.160.72,"Mozilla/5.0 (Windows NT 10.0; Win64; x64) AppleWebKit/537.36 (KHTML, like Gecko) Chrome/120.0.0.0 Safari/537.36 Edg/120.0.0.0",WebKit,Edge,120.0.0.0,Windows,10,null,"zh-CN,zh;q=0.9,en;q=0.8,en-GB;q=0.7,en-US;q=0.6","""","""","""","""","""","""",<p class='attract'>以下有两个圆圈，一个代表你自己，一个代表刚刚你想象中的她，重叠部分代表你们的亲密程度，\n                              重叠部分越大代表你们之间越亲密，请选择以下哪个可以代表你们之间的亲密度</p>\n                              <img src='distance.png' width=85%>,1,distance,""""
"""",1133,instructions,202,632901,0.0-6.0-4.31,135,1,2023/12/21 8:34,88e23e57077159ed4f24370af8da4c16,223.104.160.72,"Mozilla/5.0 (Windows NT 10.0; Win64; x64) AppleWebKit/537.36 (KHTML, like Gecko) Chrome/120.0.0.0 Safari/537.36 Edg/120.0.0.0",WebKit,Edge,120.0.0.0,Windows,10,null,"zh-CN,zh;q=0.9,en;q=0.8,en-GB;q=0.7,en-US;q=0.6","""","""","""","""","""","[{""page_index"":0,""viewing_time"":1132}]","""","""","""",""""
"""",725,html-button-response,203,633629,0.0-6.0-5.31,135,1,2023/12/21 8:34,88e23e57077159ed4f24370af8da4c16,223.104.160.72,"Mozilla/5.0 (Windows NT 10.0; Win64; x64) AppleWebKit/537.36 (KHTML, like Gecko) Chrome/120.0.0.0 Safari/537.36 Edg/120.0.0.0",WebKit,Edge,120.0.0.0,Windows,10,null,"zh-CN,zh;q=0.9,en;q=0.8,en-GB;q=0.7,en-US;q=0.6","""","""","""","""","""","""",<img src='nmj-7.jpg'>\n                          <p class='attract'>该异性对您来说吸引力评分是</p>\n                          <p class='tips'>(1代表吸引力非常小，9代表吸引力非常大)</p>,1,post_test,nmj-7.jpg
"""",null,html-keyboard-response,204,634147,0.0-6.0-0.32,135,1,2023/12/21 8:34,88e23e57077159ed4f24370af8da4c16,223.104.160.72,"Mozilla/5.0 (Windows NT 10.0; Win64; x64) AppleWebKit/537.36 (KHTML, like Gecko) Chrome/120.0.0.0 Safari/537.36 Edg/120.0.0.0",WebKit,Edge,120.0.0.0,Windows,10,null,"zh-CN,zh;q=0.9,en;q=0.8,en-GB;q=0.7,en-US;q=0.6","""","""","""","""","""","""",+,null,"""",""""
